# 0-dist(Ang),1-dGtot,2-dGvac,3-dGele,4-dGdis,5-dGcav,6-dGvdw(kT)
13.5000 0.0000 0.0000 0.0000 0.0000 0.0000 0.0000
13.4000 0.0016 0.0000 0.0064 0.0011 -0.0058 -0.0048
13.3000 0.0143 0.0000 0.0139 0.0004 -0.0000 0.0004
13.2000 0.0214 0.0000 0.0202 0.0027 -0.0015 0.0012
13.1000 0.0348 0.0000 0.0318 0.0051 -0.0021 0.0030
13.0000 0.0440 0.0002 0.0317 0.0055 0.0065 0.0121
12.9000 0.0569 0.0004 0.0319 0.0081 0.0165 0.0245
12.8000 0.0755 0.0005 0.0355 0.0100 0.0296 0.0396
12.7000 0.0946 0.0004 0.0448 0.0119 0.0375 0.0493
12.6000 0.1084 0.0004 0.0472 0.0124 0.0483 0.0607
12.5000 0.1254 0.0003 0.0524 0.0147 0.0579 0.0726
12.4000 0.1411 -0.0001 0.0557 0.0155 0.0699 0.0855
12.3000 0.1456 -0.0005 0.0610 0.0179 0.0671 0.0850
12.2000 0.1440 -0.0011 0.0690 0.0201 0.0560 0.0761
12.1000 0.1490 -0.0016 0.0802 0.0233 0.0471 0.0704
12.0000 0.1439 -0.0027 0.0922 0.0260 0.0283 0.0543
11.9000 0.1328 -0.0104 0.1052 0.0309 0.0070 0.0379
11.8000 0.1233 -0.0141 0.1148 0.0347 -0.0121 0.0226
11.7000 0.1031 -0.0198 0.1286 0.0394 -0.0451 -0.0057
11.6000 0.0779 -0.0201 0.1441 0.0463 -0.0924 -0.0461
11.5000 0.0574 -0.0185 0.1542 0.0529 -0.1313 -0.0784
11.4000 0.0349 -0.0165 0.1638 0.0589 -0.1714 -0.1125
11.3000 0.0197 -0.0130 0.1721 0.0646 -0.2042 -0.1396
11.2000 0.0041 -0.0118 0.1799 0.0681 -0.2322 -0.1641
11.1000 -0.0160 -0.0120 0.1877 0.0730 -0.2648 -0.1918
11.0000 -0.0366 -0.0130 0.1997 0.0776 -0.3010 -0.2234
10.9000 -0.0628 -0.0156 0.2028 0.0811 -0.3312 -0.2501
10.8000 -0.0887 -0.0175 0.2091 0.0848 -0.3652 -0.2804
10.7000 -0.1129 -0.0195 0.2129 0.0896 -0.3960 -0.3065
10.6000 -0.1277 -0.0208 0.2172 0.0914 -0.4155 -0.3242
10.5000 -0.1389 -0.0205 0.2213 0.0926 -0.4324 -0.3398
10.4000 -0.1545 -0.0192 0.2201 0.0935 -0.4491 -0.3555
10.3000 -0.1674 -0.0167 0.2173 0.0952 -0.4633 -0.3682
10.2000 -0.1706 -0.0143 0.2167 0.0926 -0.4658 -0.3732
10.1000 -0.1629 -0.0113 0.2186 0.0917 -0.4621 -0.3704
10.0000 -0.1433 -0.0079 0.2186 0.0891 -0.4433 -0.3543
9.9000 -0.1238 -0.0043 0.2247 0.0853 -0.4297 -0.3444
9.8000 -0.1021 -0.0012 0.2315 0.0821 -0.4147 -0.3326
9.7000 -0.0683 0.0011 0.2405 0.0768 -0.3869 -0.3101
9.6000 -0.0271 0.0025 0.2517 0.0742 -0.3556 -0.2814
9.5000 0.0154 0.0031 0.2664 0.0728 -0.3270 -0.2543
9.4000 0.0795 0.0033 0.2881 0.0720 -0.2841 -0.2120
9.3000 0.1605 0.0031 0.2984 0.0721 -0.2132 -0.1411
9.2000 0.2323 0.0024 0.3091 0.0755 -0.1547 -0.0792
9.1000 0.3069 0.0014 0.3235 0.0822 -0.1003 -0.0181
9.0000 0.3877 0.0001 0.3444 0.0924 -0.0492 0.0432
8.9000 0.4646 -0.0016 0.3637 0.1066 -0.0041 0.1025
8.8000 0.5251 -0.0038 0.3855 0.1230 0.0205 0.1435
8.7000 0.5804 -0.0064 0.4071 0.1428 0.0369 0.1797
8.6000 0.6122 -0.0093 0.4251 0.1673 0.0291 0.1964
8.5000 0.6083 -0.0126 0.4484 0.1980 -0.0255 0.1725
8.4000 0.5900 -0.0164 0.4773 0.2278 -0.0987 0.1290
8.3000 0.5452 -0.0206 0.5114 0.2598 -0.2055 0.0544
8.2000 0.4950 -0.0253 0.5441 0.2911 -0.3149 -0.0238
8.1000 0.4295 -0.0306 0.5788 0.3216 -0.4403 -0.1187
8.0000 0.3479 -0.0365 0.6149 0.3509 -0.5814 -0.2305
7.9000 0.2540 -0.0432 0.6497 0.3776 -0.7301 -0.3525
7.8000 0.1600 -0.0507 0.6817 0.4008 -0.8718 -0.4709
7.7000 0.0354 -0.0591 0.7238 0.4223 -1.0515 -0.6292
7.6000 -0.0844 -0.0685 0.7647 0.4376 -1.2180 -0.7804
7.5000 -0.2053 -0.0790 0.8022 0.4497 -1.3779 -0.9283
7.4000 -0.3291 -0.0908 0.8456 0.4570 -1.5408 -1.0837
7.3000 -0.4511 -0.1040 0.8902 0.4606 -1.6977 -1.2371
7.2000 -0.5724 -0.1188 0.9423 0.4615 -1.8571 -1.3956
7.1000 -0.6811 -0.1353 0.9961 0.4602 -2.0019 -1.5417
7.0000 -0.7815 -0.1538 1.0571 0.4565 -2.1411 -1.6846
6.9000 -0.8547 -0.1745 1.1166 0.4532 -2.2498 -1.7966
6.8000 -0.8829 -0.1976 1.1696 0.4524 -2.3071 -1.8547
6.7000 -0.8701 -0.2235 1.2242 0.4548 -2.3253 -1.8705
6.6000 -0.8088 -0.2525 1.2694 0.4625 -2.2879 -1.8255
6.5000 -0.6633 -0.2850 1.3152 0.4749 -2.1682 -1.6933
6.4000 -0.4199 -0.3214 1.3542 0.4925 -1.9452 -1.4526
6.3000 -0.0573 -0.3622 1.3835 0.5198 -1.5982 -1.0784
6.2000 0.4269 -0.4079 1.4035 0.5561 -1.1247 -0.5686
6.1000 1.0482 -0.4590 1.4154 0.6063 -0.5143 0.0920
6.0000 1.7722 -0.5164 1.4126 0.6739 0.2024 0.8763
5.9000 2.5098 -0.5808 1.4123 0.7720 0.9066 1.6786
5.8000 3.0566 -0.6529 1.4464 0.9115 1.3518 2.2634
5.7000 3.3722 -0.7339 1.5190 1.0874 1.4999 2.5873
5.6000 3.5092 -0.8246 1.6280 1.2893 1.4167 2.7060
5.5000 3.5638 -0.9264 1.7604 1.5056 1.2246 2.7302
5.4000 3.5455 -1.0406 1.9093 1.7349 0.9423 2.6772
5.3000 3.4852 -1.1686 2.0731 1.9766 0.6045 2.5812
5.2000 3.3883 -1.3119 2.2470 2.2297 0.2240 2.4537
5.1000 3.2518 -1.4723 2.4340 2.4916 -0.2009 2.2907
5.0000 3.0932 -1.6517 2.6327 2.7594 -0.6467 2.1127
4.9000 2.8957 -1.8519 2.8384 3.0353 -1.1256 1.9097
4.8000 2.6586 -2.0749 3.0580 3.3192 -1.6432 1.6759
4.7000 2.3713 -2.3224 3.2901 3.6102 -2.2063 1.4040
4.6000 2.0437 -2.5960 3.5321 3.9102 -2.8022 1.1080
4.5000 1.6725 -2.8967 3.7842 4.2151 -3.4297 0.7854
4.4000 1.2453 -3.2248 4.0500 4.5271 -4.1067 0.4204
4.3000 0.7755 -3.5788 4.3177 4.8408 -4.8040 0.0368
4.2000 0.2667 -3.9549 4.5932 5.1585 -5.5299 -0.3713
4.1000 -0.2941 -4.3457 4.8691 5.4831 -6.3002 -0.8171
4.0000 -0.8943 -4.7378 5.1559 5.8112 -7.1231 -1.3119
3.9000 -1.4928 -5.1091 5.4408 6.1409 -7.9649 -1.8240
3.8000 -2.0587 -5.4238 5.7276 6.4734 -8.8355 -2.3621
3.7000 -2.5451 -5.6253 6.0155 6.8087 -9.7436 -2.9349
3.6000 -2.8552 -5.6253 6.3022 7.1452 -10.6767 -3.5315
3.5000 -2.8514 -5.2861 6.5866 7.4802 -11.6316 -4.1515
3.4000 -2.3204 -4.3938 6.8692 7.8161 -12.6114 -4.7953
3.3000 -0.9275 -2.6149 7.1437 8.1514 -13.6071 -5.4557
3.2000 1.8431 0.5743 7.4199 8.4857 -14.6363 -6.1506
3.1000 6.8240 6.0030 7.6916 8.8176 -15.6875 -6.8699
3.0000 15.3515 15.0001 7.9555 9.1464 -16.7498 -7.6034
2.9000 29.5738 29.7278 8.2205 9.4733 -17.8471 -8.3739
2.8000 53.0916 53.7687 8.4767 9.7960 -18.9491 -9.1530
2.7000 91.9477 93.1882 8.7319 10.1151 -20.0868 -9.9717
2.6000 156.6931 158.5190 8.9867 10.4298 -21.2417 -10.8119
2.5000 266.1541 268.5922 9.2333 10.7397 -22.4105 -11.6708
2.4000 455.1151 458.1918 9.4722 11.0415 -23.5894 -12.5479
2.3000 790.1689 793.9216 9.7131 11.3376 -24.8025 -13.4649
2.2000 1403.7394 1408.1917 9.9475 11.6244 -26.0233 -14.3990
2.1000 2568.9910 2574.1725 10.1828 11.9032 -27.2659 -15.3627
2.0000 4868.5170 4874.4672 10.4107 12.1719 -28.5296 -16.3577
1.9000 9575.6144 9582.3600 10.6351 12.4295 -29.8082 -17.3787
1.8000 19499.3493 19506.9454 10.8578 12.6760 -31.1203 -18.4443
1.7000 40754.7358 40763.2156 11.0800 12.9093 -32.4539 -19.5446
1.6000 86085.9467 86095.3402 11.2970 13.1275 -33.8145 -20.6870
1.5000 180173.9403 180184.3142 11.5106 13.3316 -35.1968 -21.8652
1.4000 367783.5044 367795.1019 11.7223 13.5175 -36.6020 -23.0844
1.3000 736763.8062 736776.2094 11.9278 13.6859 -38.0354 -24.3495
