# 0-dist(Ang),1-dGtot,2-dGvac,3-dGele,4-dGdis,5-dGcav,6-dGvdw(kT)
13.5000 0.0000 0.0000 0.0000 0.0000 0.0000 0.0000
13.4000 0.0072 0.0000 -0.0148 -0.0009 0.0229 0.0220
13.3000 0.0049 0.0000 -0.0360 0.0007 0.0402 0.0409
13.2000 0.0193 0.0000 -0.0536 0.0008 0.0721 0.0728
13.1000 0.0347 -0.0000 -0.0636 0.0010 0.0973 0.0983
13.0000 0.0717 -0.0000 -0.0599 0.0016 0.1301 0.1316
12.9000 0.1189 0.0000 -0.0920 0.0055 0.2053 0.2108
12.8000 0.1493 -0.0001 -0.1140 0.0085 0.2548 0.2633
12.7000 0.1906 -0.0001 -0.1228 0.0112 0.3022 0.3134
12.6000 0.2247 -0.0000 -0.1369 0.0135 0.3482 0.3616
12.5000 0.2657 -0.0001 -0.1443 0.0167 0.3933 0.4100
12.4000 0.2836 -0.0002 -0.1527 0.0195 0.4170 0.4365
12.3000 0.3059 -0.0004 -0.1496 0.0239 0.4320 0.4559
12.2000 0.3160 -0.0007 -0.1522 0.0274 0.4415 0.4689
12.1000 0.3023 -0.0009 -0.1489 0.0304 0.4217 0.4522
12.0000 0.2934 -0.0029 -0.1177 0.0321 0.3819 0.4140
11.9000 0.2702 -0.0067 -0.1025 0.0355 0.3438 0.3793
11.8000 0.2567 -0.0084 -0.0807 0.0387 0.3071 0.3458
11.7000 0.2079 -0.0110 -0.0640 0.0441 0.2387 0.2828
11.6000 0.1886 -0.0077 -0.0578 0.0495 0.2045 0.2540
11.5000 0.1585 -0.0036 -0.0582 0.0533 0.1669 0.2202
11.4000 0.1294 -0.0003 -0.0655 0.0588 0.1364 0.1951
11.3000 0.0797 0.0010 -0.0764 0.0622 0.0927 0.1550
11.2000 0.0443 0.0017 -0.0909 0.0668 0.0665 0.1333
11.1000 0.0098 0.0023 -0.1270 0.0741 0.0603 0.1343
11.0000 -0.0299 0.0024 -0.1531 0.0794 0.0412 0.1206
10.9000 -0.0745 0.0025 -0.1846 0.0821 0.0252 0.1073
10.8000 -0.1154 0.0028 -0.2285 0.0880 0.0222 0.1102
10.7000 -0.1647 0.0027 -0.2774 0.0894 0.0204 0.1097
10.6000 -0.2030 0.0025 -0.3256 0.0937 0.0262 0.1198
10.5000 -0.2332 0.0018 -0.3713 0.0947 0.0414 0.1361
10.4000 -0.2594 0.0016 -0.4061 0.0949 0.0499 0.1448
10.3000 -0.2845 0.0013 -0.4413 0.0940 0.0613 0.1553
10.2000 -0.2903 0.0008 -0.4623 0.0888 0.0822 0.1710
10.1000 -0.2996 0.0003 -0.4895 0.0829 0.1065 0.1894
10.0000 -0.2917 -0.0003 -0.4995 0.0768 0.1311 0.2079
9.9000 -0.2734 -0.0011 -0.5095 0.0676 0.1693 0.2369
9.8000 -0.2575 -0.0020 -0.4904 0.0566 0.1780 0.2345
9.7000 -0.2057 -0.0028 -0.4687 0.0476 0.2180 0.2656
9.6000 -0.1604 -0.0038 -0.4424 0.0399 0.2457 0.2856
9.5000 -0.0919 -0.0048 -0.4101 0.0310 0.2917 0.3228
9.4000 0.0096 -0.0060 -0.3757 0.0275 0.3634 0.3910
9.3000 0.1497 -0.0073 -0.3111 0.0248 0.4429 0.4677
9.2000 0.3100 -0.0088 -0.2635 0.0273 0.5546 0.5820
9.1000 0.4920 -0.0104 -0.2045 0.0319 0.6746 0.7066
9.0000 0.6843 -0.0122 -0.1694 0.0420 0.8237 0.8657
8.9000 0.8584 -0.0143 -0.1427 0.0598 0.9553 1.0151
8.8000 1.0266 -0.0166 -0.1010 0.0823 1.0615 1.1438
8.7000 1.1497 -0.0191 -0.0839 0.1073 1.1450 1.2523
8.6000 1.2572 -0.0220 -0.0629 0.1370 1.2046 1.3416
8.5000 1.2959 -0.0251 -0.0513 0.1670 1.2048 1.3719
8.4000 1.3206 -0.0286 -0.0198 0.1960 1.1724 1.3685
8.3000 1.2970 -0.0325 -0.0279 0.2289 1.1280 1.3569
8.2000 1.2124 -0.0368 -0.0054 0.2614 0.9926 1.2540
8.1000 1.1088 -0.0415 0.0145 0.2907 0.8446 1.1352
8.0000 1.0077 -0.0468 0.0362 0.3202 0.6974 1.0176
7.9000 0.8692 -0.0526 0.0515 0.3467 0.5230 0.8697
7.8000 0.7111 -0.0591 0.0987 0.3687 0.3022 0.6709
7.7000 0.5487 -0.0663 0.1508 0.3856 0.0780 0.4636
7.6000 0.3874 -0.0743 0.1912 0.3969 -0.1270 0.2698
7.5000 0.2155 -0.0832 0.2292 0.4034 -0.3347 0.0687
7.4000 0.0341 -0.0930 0.2749 0.4065 -0.5549 -0.1484
7.3000 -0.1413 -0.1040 0.3111 0.4045 -0.7535 -0.3490
7.2000 -0.3273 -0.1162 0.3606 0.4016 -0.9737 -0.5722
7.1000 -0.4928 -0.1298 0.4150 0.3955 -1.1740 -0.7785
7.0000 -0.6434 -0.1450 0.4852 0.3882 -1.3722 -0.9840
6.9000 -0.7782 -0.1618 0.5520 0.3852 -1.5539 -1.1687
6.8000 -0.8828 -0.1806 0.5923 0.3864 -1.6811 -1.2947
6.7000 -0.9398 -0.2016 0.6315 0.3921 -1.7621 -1.3700
6.6000 -0.9378 -0.2250 0.6682 0.4089 -1.7901 -1.3812
6.5000 -0.8715 -0.2512 0.7102 0.4351 -1.7659 -1.3308
6.4000 -0.6969 -0.2804 0.7203 0.4717 -1.6088 -1.1372
6.3000 -0.4236 -0.3131 0.7242 0.5147 -1.3498 -0.8351
6.2000 0.0060 -0.3497 0.7047 0.5731 -0.9225 -0.3494
6.1000 0.6113 -0.3906 0.6742 0.6396 -0.3122 0.3273
6.0000 1.3923 -0.4365 0.6102 0.7197 0.4985 1.2182
5.9000 2.3742 -0.4879 0.5197 0.8156 1.5267 2.3423
5.8000 3.4135 -0.5456 0.4669 0.9321 2.5599 3.4920
5.7000 4.0724 -0.6103 0.5817 1.0821 3.0188 4.1009
5.6000 4.3301 -0.6830 0.8395 1.2556 2.9179 4.1736
5.5000 4.3913 -0.7645 1.1678 1.4451 2.5429 3.9880
5.4000 4.3754 -0.8561 1.5184 1.6456 2.0674 3.7130
5.3000 4.3134 -0.9589 1.8763 1.8598 1.5362 3.3959
5.2000 4.2298 -1.0743 2.2567 2.0832 0.9642 3.0474
5.1000 4.1062 -1.2039 2.6434 2.3150 0.3516 2.6666
5.0000 3.9727 -1.3491 3.0400 2.5585 -0.2768 2.2818
4.9000 3.7810 -1.5117 3.4467 2.8128 -0.9668 1.8460
4.8000 3.5621 -1.6934 3.8649 3.0749 -1.6842 1.3906
4.7000 3.2955 -1.8960 4.3089 3.3411 -2.4583 0.8828
4.6000 2.9583 -2.1211 4.7631 3.6144 -3.2982 0.3162
4.5000 2.5896 -2.3698 5.2259 3.8929 -4.1595 -0.2666
4.4000 2.1553 -2.6429 5.7085 4.1759 -5.0863 -0.9104
4.3000 1.6708 -2.9398 6.1974 4.4669 -6.0539 -1.5870
4.2000 1.1213 -3.2581 6.6944 4.7604 -7.0755 -2.3151
4.1000 0.5313 -3.5928 7.1789 5.0606 -8.1156 -3.0550
4.0000 -0.0937 -3.9338 7.6712 5.3626 -9.1940 -3.8313
3.9000 -0.7383 -4.2644 8.1696 5.6646 -10.3083 -4.6437
3.8000 -1.3882 -4.5565 8.6771 5.9687 -11.4777 -5.5090
3.7000 -1.9782 -4.7650 9.1802 6.2728 -12.6662 -6.3934
3.6000 -2.4458 -4.8184 9.6689 6.5773 -13.8737 -7.2965
3.5000 -2.6652 -4.6036 10.1526 6.8822 -15.0963 -8.2141
3.4000 -2.4742 -3.9430 10.6378 7.1861 -16.3551 -9.1690
3.3000 -1.5719 -2.5560 11.1227 7.4875 -17.6262 -10.1387
3.2000 0.4709 0.0027 11.6103 7.7875 -18.9296 -11.1422
3.1000 4.3579 4.4460 12.0982 8.0828 -20.2690 -12.1862
3.0000 11.2690 11.9285 12.5789 8.3736 -21.6120 -13.2384
2.9000 23.0747 24.3484 13.0744 8.6593 -23.0073 -14.3480
2.8000 42.9638 44.8795 13.5674 8.9405 -24.4234 -15.4830
2.7000 76.3730 78.9368 14.0447 9.2155 -25.8239 -16.6084
2.6000 132.7304 135.9713 14.5353 9.4860 -27.2621 -17.7761
2.5000 228.9417 232.8907 15.0216 9.7488 -28.7194 -18.9706
2.4000 396.0554 400.7521 15.5115 10.0038 -30.2119 -20.2081
2.3000 692.6844 698.1558 15.9877 10.2480 -31.7068 -21.4588
2.2000 1232.2518 1238.5294 16.4781 10.4839 -33.2392 -22.7553
2.1000 2239.2677 2246.3947 16.9606 10.7101 -34.7973 -24.0873
2.0000 4165.3905 4173.4160 17.4572 10.9221 -36.4041 -25.4820
1.9000 7925.7631 7934.7100 17.9464 11.1205 -38.0127 -26.8921
1.8000 15366.1277 15376.0448 18.4345 11.3048 -39.6537 -28.3489
1.7000 30153.2115 30164.1407 18.9173 11.4715 -41.3137 -29.8422
1.6000 59454.3033 59466.3025 19.4081 11.6212 -43.0199 -31.3986
1.5000 117466.7586 117479.8839 19.8861 11.7512 -44.7469 -32.9957
1.4000 235008.0000 235022.3196 20.3566 11.8613 -46.5045 -34.6432
1.3000 491499.1064 491514.7101 20.8320 11.9486 -48.3125 -36.3639
