# 0-dist(Ang),1-dGtot,2-dGvac,3-dGele,4-dGdis,5-dGcav,6-dGvdw(kT)
13.5000 0.0000 0.0000 0.0000 0.0000 0.0000 0.0000
13.4000 -0.0047 0.0000 0.0021 0.0006 -0.0073 -0.0067
13.3000 -0.0078 0.0000 0.0098 0.0017 -0.0193 -0.0176
13.2000 0.0016 0.0000 0.0146 0.0008 -0.0139 -0.0131
13.1000 0.0145 0.0000 0.0239 0.0016 -0.0110 -0.0094
13.0000 0.0256 0.0000 0.0313 0.0015 -0.0073 -0.0058
12.9000 0.0442 0.0002 0.0389 0.0030 0.0021 0.0051
12.8000 0.0586 0.0006 0.0409 0.0035 0.0136 0.0171
12.7000 0.0724 0.0011 0.0435 0.0027 0.0251 0.0278
12.6000 0.0843 0.0015 0.0432 0.0029 0.0366 0.0395
12.5000 0.0899 0.0020 0.0401 0.0047 0.0431 0.0478
12.4000 0.1031 0.0024 0.0392 0.0063 0.0552 0.0616
12.3000 0.1106 0.0027 0.0477 0.0092 0.0511 0.0603
12.2000 0.1182 0.0031 0.0576 0.0122 0.0453 0.0575
12.1000 0.1279 0.0032 0.0649 0.0146 0.0453 0.0598
12.0000 0.1333 0.0033 0.0701 0.0180 0.0419 0.0599
11.9000 0.1347 -0.0006 0.0801 0.0212 0.0340 0.0552
11.8000 0.1388 -0.0040 0.0886 0.0235 0.0307 0.0543
11.7000 0.1288 -0.0078 0.1046 0.0250 0.0071 0.0321
11.6000 0.1202 -0.0112 0.1198 0.0305 -0.0190 0.0115
11.5000 0.1082 -0.0137 0.1275 0.0339 -0.0396 -0.0056
11.4000 0.0930 -0.0175 0.1357 0.0385 -0.0638 -0.0253
11.3000 0.0815 -0.0198 0.1478 0.0427 -0.0892 -0.0466
11.2000 0.0687 -0.0213 0.1543 0.0455 -0.1099 -0.0644
11.1000 0.0525 -0.0220 0.1620 0.0486 -0.1362 -0.0876
11.0000 0.0447 -0.0225 0.1699 0.0530 -0.1558 -0.1028
10.9000 0.0130 -0.0231 0.1762 0.0599 -0.2001 -0.1402
10.8000 -0.0065 -0.0213 0.1783 0.0653 -0.2288 -0.1635
10.7000 -0.0218 -0.0177 0.1829 0.0692 -0.2562 -0.1870
10.6000 -0.0415 -0.0145 0.1870 0.0719 -0.2860 -0.2141
10.5000 -0.0531 -0.0112 0.1935 0.0768 -0.3123 -0.2355
10.4000 -0.0654 -0.0090 0.1980 0.0793 -0.3337 -0.2544
10.3000 -0.0726 -0.0081 0.1993 0.0802 -0.3439 -0.2637
10.2000 -0.0901 -0.0081 0.1998 0.0822 -0.3640 -0.2818
10.1000 -0.1008 -0.0087 0.1987 0.0811 -0.3719 -0.2908
10.0000 -0.1005 -0.0104 0.1991 0.0812 -0.3705 -0.2893
9.9000 -0.0946 -0.0127 0.2031 0.0791 -0.3640 -0.2849
9.8000 -0.0892 -0.0161 0.2075 0.0781 -0.3587 -0.2807
9.7000 -0.0670 -0.0177 0.2144 0.0765 -0.3402 -0.2638
9.6000 -0.0298 -0.0192 0.2182 0.0719 -0.3006 -0.2287
9.5000 0.0111 -0.0195 0.2227 0.0687 -0.2607 -0.1920
9.4000 0.0519 -0.0189 0.2330 0.0664 -0.2288 -0.1623
9.3000 0.1008 -0.0172 0.2384 0.0667 -0.1871 -0.1204
9.2000 0.1682 -0.0150 0.2493 0.0661 -0.1322 -0.0661
9.1000 0.2412 -0.0126 0.2584 0.0684 -0.0732 -0.0048
9.0000 0.3115 -0.0100 0.2739 0.0740 -0.0265 0.0475
8.9000 0.3806 -0.0079 0.2952 0.0824 0.0108 0.0932
8.8000 0.4524 -0.0063 0.3166 0.0956 0.0465 0.1421
8.7000 0.5082 -0.0055 0.3283 0.1105 0.0749 0.1854
8.6000 0.5633 -0.0055 0.3408 0.1269 0.1012 0.2281
8.5000 0.5791 -0.0065 0.3585 0.1498 0.0774 0.2272
8.4000 0.5964 -0.0083 0.3746 0.1736 0.0565 0.2301
8.3000 0.5779 -0.0110 0.3896 0.2000 -0.0006 0.1993
8.2000 0.5557 -0.0142 0.4023 0.2252 -0.0576 0.1677
8.1000 0.5095 -0.0181 0.4144 0.2522 -0.1390 0.1132
8.0000 0.4561 -0.0227 0.4270 0.2777 -0.2257 0.0519
7.9000 0.3806 -0.0280 0.4398 0.3020 -0.3331 -0.0310
7.8000 0.3104 -0.0342 0.4568 0.3243 -0.4364 -0.1121
7.7000 0.2188 -0.0412 0.4764 0.3433 -0.5596 -0.2163
7.6000 0.1175 -0.0491 0.4901 0.3608 -0.6842 -0.3234
7.5000 0.0157 -0.0580 0.5105 0.3730 -0.8097 -0.4368
7.4000 -0.0970 -0.0678 0.5337 0.3847 -0.9474 -0.5628
7.3000 -0.2118 -0.0789 0.5580 0.3921 -1.0830 -0.6909
7.2000 -0.3324 -0.0912 0.5833 0.3967 -1.2211 -0.8244
7.1000 -0.4448 -0.1050 0.6089 0.3975 -1.3461 -0.9486
7.0000 -0.5445 -0.1204 0.6393 0.3954 -1.4587 -1.0633
6.9000 -0.6368 -0.1376 0.6787 0.3930 -1.5709 -1.1779
6.8000 -0.7207 -0.1569 0.7116 0.3936 -1.6691 -1.2755
6.7000 -0.7720 -0.1783 0.7409 0.3960 -1.7307 -1.3347
6.6000 -0.7723 -0.2023 0.7632 0.3993 -1.7327 -1.3334
6.5000 -0.7146 -0.2290 0.7905 0.4048 -1.6809 -1.2762
6.4000 -0.5892 -0.2589 0.8081 0.4144 -1.5529 -1.1385
6.3000 -0.3867 -0.2923 0.8257 0.4299 -1.3502 -0.9203
6.2000 -0.0762 -0.3295 0.8331 0.4539 -1.0338 -0.5799
6.1000 0.3432 -0.3711 0.8275 0.4840 -0.5973 -0.1133
6.0000 0.8737 -0.4177 0.8118 0.5270 -0.0475 0.4794
5.9000 1.4467 -0.4696 0.7891 0.5918 0.5353 1.1271
5.8000 1.9791 -0.5277 0.7879 0.6837 1.0350 1.7187
5.7000 2.3888 -0.5926 0.8096 0.8046 1.3671 2.1716
5.6000 2.6605 -0.6651 0.8602 0.9503 1.5149 2.4651
5.5000 2.8284 -0.7462 0.9452 1.1176 1.5115 2.6291
5.4000 2.9279 -0.8368 1.0443 1.2983 1.4218 2.7200
5.3000 2.9706 -0.9379 1.1705 1.4941 1.2437 2.7378
5.2000 2.9606 -1.0509 1.3065 1.7034 1.0013 2.7047
5.1000 2.9189 -1.1769 1.4590 1.9223 0.7143 2.6366
5.0000 2.8297 -1.3174 1.6211 2.1525 0.3735 2.5259
4.9000 2.7174 -1.4738 1.7955 2.3890 0.0066 2.3955
4.8000 2.5664 -1.6476 1.9844 2.6356 -0.4063 2.2293
4.7000 2.3899 -1.8402 2.1870 2.8867 -0.8440 2.0427
4.6000 2.1650 -2.0529 2.3979 3.1457 -1.3260 1.8197
4.5000 1.9153 -2.2870 2.6186 3.4100 -1.8266 1.5834
4.4000 1.6227 -2.5428 2.8498 3.6806 -2.3653 1.3154
4.3000 1.2874 -2.8201 3.0950 3.9553 -2.9431 1.0122
4.2000 0.9169 -3.1173 3.3483 4.2343 -3.5488 0.6855
4.1000 0.5101 -3.4306 3.6125 4.5203 -4.1924 0.3279
4.0000 0.0736 -3.7530 3.8859 4.8082 -4.8680 -0.0598
3.9000 -0.3822 -4.0723 4.1670 5.0977 -5.5750 -0.4774
3.8000 -0.8338 -4.3690 4.4483 5.3908 -6.3044 -0.9137
3.7000 -1.2612 -4.6119 4.7336 5.6860 -7.0695 -1.3835
3.6000 -1.6029 -4.7525 5.0200 5.9813 -7.8522 -1.8708
3.5000 -1.7986 -4.7163 5.3112 6.2787 -8.6726 -2.3939
3.4000 -1.7133 -4.3888 5.6030 6.5759 -9.5037 -2.9278
3.3000 -1.1993 -3.5947 5.8918 6.8742 -10.3710 -3.4968
3.2000 0.0291 -2.0650 6.1827 7.1701 -11.2591 -4.0890
3.1000 2.3896 0.6144 6.4695 7.4646 -12.1593 -4.6946
3.0000 6.5191 5.0845 6.7575 7.7583 -13.0816 -5.3233
2.9000 13.4254 12.3459 7.0410 8.0470 -14.0088 -5.9618
2.8000 24.6821 23.9742 7.3203 8.3338 -14.9466 -6.6127
2.7000 42.7884 42.4790 7.5936 8.6160 -15.9005 -7.2845
2.6000 71.7962 71.9078 7.8651 8.8952 -16.8723 -7.9771
2.5000 118.3268 118.8859 8.1393 9.1693 -17.8681 -8.6988
2.4000 193.4075 194.4350 8.4026 9.4382 -18.8687 -9.4305
2.3000 315.7178 317.2395 8.6616 9.6995 -19.8834 -10.1839
2.2000 517.6024 519.6370 8.9181 9.9554 -20.9086 -10.9532
2.1000 856.3633 858.9247 9.1711 10.2031 -21.9362 -11.7331
2.0000 1436.2082 1439.3247 9.4214 10.4401 -22.9789 -12.5388
1.9000 2452.3853 2456.0811 9.6681 10.6682 -24.0337 -13.3655
1.8000 4282.9419 4287.2453 9.9076 10.8859 -25.0995 -14.2137
1.7000 7687.5088 7692.4483 10.1449 11.0936 -26.1824 -15.0887
1.6000 14257.0695 14262.6710 10.3753 11.2900 -27.2738 -15.9837
1.5000 27481.9535 27488.2475 10.6047 11.4715 -28.3815 -16.9100
1.4000 55425.9824 55432.9825 10.8253 11.6377 -29.4919 -17.8542
1.3000 117826.2326 117834.0351 11.0405 11.7909 -30.6330 -18.8421
