# 0-dist(Ang),1-dGtot,2-dGvac,3-dGele,4-dGdis,5-dGcav,6-dGvdw(kT)
13.5000 0.0000 0.0000 0.0000 0.0000 0.0000 0.0000
13.4000 -0.0065 0.0000 -1.7578 -0.0350 1.7863 1.7512
13.3000 -0.0084 0.0000 -3.5375 -0.0697 3.5989 3.5291
13.2000 -0.0121 0.0000 -5.3136 -0.1046 5.4062 5.3016
13.1000 -0.0139 0.0000 -7.0789 -0.1393 7.2044 7.0650
13.0000 -0.0125 0.0000 -8.8491 -0.1741 9.0108 8.8367
12.9000 -0.0312 0.0000 -10.6215 -0.2084 10.7988 10.5904
12.8000 -0.0425 0.0000 -12.3692 -0.2434 12.5701 12.3267
12.7000 -0.0464 0.0000 -14.1362 -0.2788 14.3687 14.0899
12.6000 -0.0399 0.0000 -15.8759 -0.3138 16.1499 15.8361
12.5000 -0.0482 0.0000 -17.6240 -0.3478 17.9238 17.5759
12.4000 -0.0393 0.0000 -19.3545 -0.3837 19.6992 19.3154
12.3000 -0.0235 0.0000 -21.0943 -0.4195 21.4905 21.0710
12.2000 -0.0074 0.0000 -22.8241 -0.4544 23.2713 22.8169
12.1000 0.0017 0.0000 -24.5468 -0.4894 25.0380 24.5486
12.0000 0.0163 0.0000 -26.2819 -0.5243 26.8227 26.2984
11.9000 0.0330 -0.0031 -28.0151 -0.5587 28.6100 28.0513
11.8000 0.0425 -0.0086 -29.7677 -0.5934 30.4124 29.8189
11.7000 0.0406 -0.0165 -31.5229 -0.6293 32.2097 31.5803
11.6000 0.0363 -0.0271 -33.2659 -0.6646 33.9942 33.3296
11.5000 0.0454 -0.0402 -35.0238 -0.7003 35.8100 35.1096
11.4000 0.0387 -0.0559 -36.7695 -0.7354 37.5998 36.8644
11.3000 0.0478 -0.0743 -38.5320 -0.7711 39.4254 38.6543
11.2000 0.0366 -0.0954 -40.2966 -0.8064 41.2352 40.4288
11.1000 0.0371 -0.1193 -42.0375 -0.8414 43.0355 42.1941
11.0000 0.0237 -0.1461 -43.7847 -0.8770 44.8316 43.9545
10.9000 0.0215 -0.1747 -45.5485 -0.9120 46.6568 45.7449
10.8000 0.0164 -0.2032 -47.2981 -0.9472 48.4649 47.5177
10.7000 0.0105 -0.2317 -49.0339 -0.9820 50.2582 49.2761
10.6000 0.0161 -0.2590 -50.7798 -1.0172 52.0722 51.0550
10.5000 0.0249 -0.2896 -52.5088 -1.0525 53.8760 52.8235
10.4000 0.0262 -0.3255 -54.2602 -1.0886 55.7007 54.6121
10.3000 0.0260 -0.3677 -55.9641 -1.1226 57.4807 56.3581
10.2000 0.0289 -0.4158 -57.6924 -1.1581 59.2955 58.1374
10.1000 0.0296 -0.4693 -59.4219 -1.1927 61.1137 59.9210
10.0000 0.0240 -0.5287 -61.1278 -1.2288 62.9095 61.6807
9.9000 0.0230 -0.5959 -62.8414 -1.2649 64.7254 63.4605
9.8000 0.0241 -0.6730 -64.5126 -1.2995 66.5093 65.2098
9.7000 0.0277 -0.7600 -66.1858 -1.3341 68.3078 66.9736
9.6000 0.0239 -0.8584 -67.8255 -1.3690 70.0770 68.7080
9.5000 0.0105 -0.9686 -69.4792 -1.4046 71.8631 70.4584
9.4000 -0.0124 -1.0907 -71.0952 -1.4387 73.6124 72.1737
9.3000 -0.0358 -1.2238 -72.7360 -1.4738 75.3979 73.9241
9.2000 -0.0418 -1.3636 -74.3531 -1.5091 77.1841 75.6750
9.1000 -0.0467 -1.5119 -75.9558 -1.5453 78.9666 77.4212
9.0000 -0.0574 -1.6668 -77.5499 -1.5798 80.7392 79.1594
8.9000 -0.0561 -1.8291 -79.1546 -1.6154 82.5431 80.9277
8.8000 -0.0542 -1.9954 -80.7534 -1.6507 84.3454 82.6946
8.7000 -0.0488 -2.1635 -82.3452 -1.6856 86.1456 84.4601
8.6000 -0.0396 -2.3345 -83.9282 -1.7201 87.9433 86.2232
8.5000 -0.0236 -2.5117 -85.5112 -1.7551 89.7547 87.9996
8.4000 -0.0035 -2.7036 -87.0847 -1.7901 91.5751 89.7850
8.3000 0.0173 -2.9086 -88.6519 -1.8251 93.4031 91.5780
8.2000 0.0428 -3.1278 -90.1947 -1.8614 95.2269 93.3655
8.1000 0.0554 -3.3633 -91.7419 -1.8970 97.0577 95.1607
8.0000 0.0583 -3.6152 -93.2565 -1.9329 98.8631 96.9301
7.9000 0.0747 -3.8819 -94.7636 -1.9686 100.6890 98.7204
7.8000 0.0923 -4.1642 -96.2469 -2.0043 102.5079 100.5036
7.7000 0.1036 -4.4623 -97.6977 -2.0391 104.3029 102.2639
7.6000 0.1146 -4.7768 -99.1355 -2.0749 106.1021 104.0272
7.5000 0.1145 -5.1097 -100.5371 -2.1092 107.8709 105.7617
7.4000 0.1257 -5.4603 -101.8895 -2.1442 109.6200 107.4758
7.3000 0.1242 -5.8289 -103.1978 -2.1790 111.3305 109.1514
7.2000 0.1111 -6.2163 -104.4970 -2.2138 113.0387 110.8249
7.1000 0.0947 -6.6222 -105.7770 -2.2487 114.7430 112.4943
7.0000 0.0610 -7.0490 -107.0548 -2.2827 116.4480 114.1653
6.9000 0.0236 -7.4969 -108.3232 -2.3171 118.1612 115.8441
6.8000 -0.0097 -7.9654 -109.5487 -2.3509 119.8558 117.5049
6.7000 -0.0527 -8.4558 -110.7893 -2.3841 121.5770 119.1929
6.6000 -0.0843 -8.9686 -112.0536 -2.4178 123.3563 120.9385
6.5000 -0.1289 -9.5034 -113.3389 -2.4515 125.1656 122.7141
6.4000 -0.1734 -10.0603 -114.6558 -2.4843 127.0276 124.5434
6.3000 -0.2107 -10.6399 -115.9570 -2.5178 128.9046 126.3868
6.2000 -0.2444 -11.2424 -117.2990 -2.5516 130.8493 128.2976
6.1000 -0.2897 -11.8693 -118.6430 -2.5852 132.8084 130.2232
6.0000 -0.3246 -12.5228 -119.9559 -2.6192 134.7738 132.1546
5.9000 -0.3403 -13.2037 -121.2515 -2.6548 136.7702 134.1154
5.8000 -0.3733 -13.9140 -122.5174 -2.6914 138.7502 136.0588
5.7000 -0.3722 -14.6559 -123.7477 -2.7283 140.7605 138.0322
5.6000 -0.3663 -15.4292 -124.9227 -2.7666 142.7529 139.9864
5.5000 -0.3424 -16.2350 -126.0066 -2.8052 144.7052 141.8999
5.4000 -0.2980 -17.0739 -127.0176 -2.8451 146.6393 143.7942
5.3000 -0.2473 -17.9477 -127.8960 -2.8848 148.4821 145.5972
5.2000 -0.1796 -18.8584 -128.6798 -2.9224 150.2818 147.3594
5.1000 -0.0951 -19.8095 -129.3144 -2.9593 151.9890 149.0296
5.0000 -0.0095 -20.8040 -129.8278 -2.9962 153.6194 150.6232
4.9000 0.0525 -21.8435 -130.1771 -3.0316 155.1056 152.0740
4.8000 0.0665 -22.9304 -130.4031 -3.0671 156.4680 153.4009
4.7000 0.0045 -24.0630 -130.5492 -3.1049 157.7223 154.6174
4.6000 -0.1588 -25.2443 -130.6540 -3.1424 158.8827 155.7404
4.5000 -0.3806 -26.4763 -130.8214 -3.1784 160.0963 156.9179
4.4000 -0.6199 -27.7611 -131.0869 -3.2126 161.4416 158.2290
4.3000 -0.7749 -29.1029 -131.4428 -3.2422 163.0139 159.7717
4.2000 -0.8035 -30.5049 -131.9234 -3.2685 164.8941 161.6256
4.1000 -0.7161 -31.9701 -132.4675 -3.2934 167.0157 163.7223
4.0000 -0.5455 -33.5004 -133.0506 -3.3158 169.3221 166.0063
3.9000 -0.3616 -35.1005 -133.6557 -3.3378 171.7332 168.3954
3.8000 -0.2424 -36.7757 -134.2813 -3.3578 174.1731 170.8153
3.7000 -0.1650 -38.5315 -134.9086 -3.3765 176.6524 173.2759
3.6000 -0.0767 -40.3732 -135.6300 -3.3933 179.3206 175.9273
3.5000 0.0688 -42.3066 -136.3543 -3.4078 182.1384 178.7306
3.4000 0.2661 -44.3384 -137.0533 -3.4197 185.0783 181.6586
3.3000 0.5007 -46.4761 -137.6881 -3.4301 188.0959 184.6658
3.2000 0.7658 -48.7276 -138.2324 -3.4401 191.1667 187.7267
3.1000 1.0419 -51.1006 -138.5917 -3.4476 194.1828 190.7351
3.0000 1.3164 -53.6052 -138.7261 -3.4527 197.1012 193.6485
2.9000 1.5647 -56.2519 -138.5913 -3.4549 199.8637 196.4088
2.8000 1.7594 -59.0531 -138.1242 -3.4568 202.3944 198.9377
2.7000 1.8862 -62.0218 -137.3321 -3.4546 204.6957 201.2411
2.6000 1.9228 -65.1714 -136.2013 -3.4521 206.7486 203.2965
2.5000 1.8492 -68.5157 -134.7359 -3.4473 208.5492 205.1019
2.4000 1.6338 -72.0681 -132.9251 -3.4390 210.0671 206.6280
2.3000 1.2600 -75.8400 -130.8173 -3.4281 211.3464 207.9183
2.2000 0.6768 -79.8387 -128.3963 -3.4125 212.3254 208.9129
2.1000 -0.1271 -84.0625 -125.6796 -3.3919 213.0080 209.6161
2.0000 -1.1605 -88.4910 -122.7160 -3.3668 213.4144 210.0476
1.9000 -2.4103 -93.0687 -119.5391 -3.3361 213.5346 210.1985
1.8000 -3.7393 -97.6720 -116.1568 -3.3006 213.3911 210.0905
1.7000 -4.8842 -102.0447 -112.6141 -3.2609 213.0365 209.7756
1.6000 -5.3409 -105.6638 -108.9367 -3.2156 212.4762 209.2606
1.5000 -4.0186 -107.4461 -105.1493 -3.1665 211.7443 208.5778
1.4000 1.4037 -105.0528 -101.2802 -3.1118 210.8494 207.7376
1.3000 16.3049 -93.0946 -97.3556 -3.0523 209.8082 206.7560
