# 0-dist(Ang),1-dGtot,2-dGvac,3-dGele,4-dGdis,5-dGcav,6-dGvdw(kT)
13.5000 0.0000 0.0000 0.0000 0.0000 0.0000 0.0000
13.4000 -0.0084 0.0000 0.4374 -0.0141 -0.4317 -0.4458
13.3000 -0.0297 0.0000 0.8755 -0.0255 -0.8797 -0.9053
13.2000 -0.0450 0.0000 1.3038 -0.0379 -1.3110 -1.3488
13.1000 -0.0606 0.0000 1.7304 -0.0501 -1.7409 -1.7910
13.0000 -0.0738 0.0000 2.1647 -0.0628 -2.1757 -2.2385
12.9000 -0.0819 0.0000 2.5888 -0.0757 -2.5950 -2.6707
12.8000 -0.0949 0.0000 3.0305 -0.0873 -3.0382 -3.1254
12.7000 -0.0971 0.0000 3.4641 -0.1008 -3.4603 -3.5611
12.6000 -0.0968 0.0000 3.8949 -0.1114 -3.8803 -3.9916
12.5000 -0.1004 0.0000 4.3068 -0.1240 -4.2832 -4.4072
12.4000 -0.0998 0.0000 4.7363 -0.1379 -4.6981 -4.8360
12.3000 -0.1044 0.0000 5.1686 -0.1498 -5.1233 -5.2730
12.2000 -0.0983 0.0000 5.6092 -0.1612 -5.5463 -5.7075
12.1000 -0.0956 0.0000 6.0467 -0.1746 -5.9677 -6.1423
12.0000 -0.0899 0.0000 6.4738 -0.1867 -6.3770 -6.5636
11.9000 -0.0855 -0.0020 6.9049 -0.2004 -6.7881 -6.9884
11.8000 -0.0935 -0.0060 7.3394 -0.2126 -7.2145 -7.4270
11.7000 -0.1007 -0.0113 7.7624 -0.2242 -7.6277 -7.8519
11.6000 -0.1120 -0.0170 8.2150 -0.2372 -8.0728 -8.3100
11.5000 -0.1307 -0.0233 8.6628 -0.2506 -8.5197 -8.7702
11.4000 -0.1358 -0.0301 9.1079 -0.2658 -8.9478 -9.2136
11.3000 -0.1512 -0.0376 9.5323 -0.2765 -9.3694 -9.6459
11.2000 -0.1673 -0.0457 9.9685 -0.2876 -9.8025 -10.0901
11.1000 -0.1662 -0.0545 10.4058 -0.3002 -10.2174 -10.5176
11.0000 -0.1927 -0.0640 10.8244 -0.3136 -10.6395 -10.9531
10.9000 -0.1932 -0.0702 11.2571 -0.3268 -11.0534 -11.3801
10.8000 -0.2069 -0.0744 11.6888 -0.3398 -11.4814 -11.8213
10.7000 -0.2132 -0.0755 12.1196 -0.3518 -11.9057 -12.2575
10.6000 -0.2136 -0.0749 12.5593 -0.3653 -12.3328 -12.6981
10.5000 -0.2188 -0.0735 12.9838 -0.3797 -12.7495 -13.1292
10.4000 -0.2192 -0.0721 13.4111 -0.3935 -13.1648 -13.5583
10.3000 -0.2266 -0.0712 13.8395 -0.4045 -13.5905 -13.9950
10.2000 -0.2202 -0.0721 14.2822 -0.4169 -14.0135 -14.4304
10.1000 -0.2338 -0.0759 14.7215 -0.4296 -14.4499 -14.8795
10.0000 -0.2374 -0.0829 15.1445 -0.4406 -14.8584 -15.2991
9.9000 -0.2380 -0.0925 15.5777 -0.4539 -15.2694 -15.7233
9.8000 -0.2390 -0.1030 16.0029 -0.4654 -15.6736 -16.1390
9.7000 -0.2393 -0.1171 16.4386 -0.4779 -16.0831 -16.5610
9.6000 -0.2543 -0.1319 16.8605 -0.4906 -16.4924 -16.9831
9.5000 -0.2531 -0.1492 17.2929 -0.5031 -16.8938 -17.3969
9.4000 -0.2630 -0.1670 17.7353 -0.5148 -17.3166 -17.8314
9.3000 -0.2672 -0.1836 18.1705 -0.5275 -17.7268 -18.2543
9.2000 -0.2799 -0.1980 18.6101 -0.5395 -18.1526 -18.6921
9.1000 -0.2825 -0.2105 19.0494 -0.5518 -18.5697 -19.1215
9.0000 -0.2856 -0.2197 19.4966 -0.5624 -19.0000 -19.5624
8.9000 -0.2839 -0.2234 19.9396 -0.5733 -19.4268 -20.0001
8.8000 -0.2818 -0.2211 20.3907 -0.5852 -19.8662 -20.4514
8.7000 -0.2628 -0.2174 20.8378 -0.5958 -20.2874 -20.8832
8.6000 -0.2708 -0.2154 21.2823 -0.6051 -20.7328 -21.3379
8.5000 -0.2589 -0.2152 21.7395 -0.6169 -21.1665 -21.7834
8.4000 -0.2701 -0.2174 22.1871 -0.6279 -21.6119 -22.2398
8.3000 -0.2852 -0.2222 22.6325 -0.6393 -22.0564 -22.6956
8.2000 -0.2963 -0.2311 23.0669 -0.6500 -22.4821 -23.1322
8.1000 -0.3078 -0.2423 23.5075 -0.6602 -22.9129 -23.5732
8.0000 -0.3359 -0.2571 23.9672 -0.6717 -23.3745 -24.0462
7.9000 -0.3570 -0.2765 24.4074 -0.6832 -23.8048 -24.4880
7.8000 -0.3958 -0.2991 24.8574 -0.6946 -24.2596 -24.9542
7.7000 -0.4417 -0.3271 25.3145 -0.7042 -24.7250 -25.4293
7.6000 -0.4695 -0.3546 25.7435 -0.7187 -25.1397 -25.8584
7.5000 -0.5032 -0.3810 26.1798 -0.7301 -25.5720 -26.3021
7.4000 -0.5361 -0.4075 26.6006 -0.7443 -25.9850 -26.7294
7.3000 -0.5661 -0.4263 27.0153 -0.7564 -26.3989 -27.1553
7.2000 -0.5786 -0.4407 27.4107 -0.7705 -26.7782 -27.5487
7.1000 -0.5681 -0.4495 27.8061 -0.7817 -27.1431 -27.9248
7.0000 -0.5462 -0.4554 28.1938 -0.7926 -27.4920 -28.2847
6.9000 -0.5162 -0.4590 28.5951 -0.8030 -27.8494 -28.6523
6.8000 -0.4842 -0.4640 28.9771 -0.8135 -28.1840 -28.9974
6.7000 -0.4392 -0.4709 29.3649 -0.8236 -28.5097 -29.3332
6.6000 -0.3856 -0.4811 29.7458 -0.8318 -28.8185 -29.6503
6.5000 -0.3309 -0.4952 30.1455 -0.8394 -29.1418 -29.9812
6.4000 -0.2638 -0.5133 30.5651 -0.8470 -29.4686 -30.3156
6.3000 -0.2024 -0.5359 31.0190 -0.8524 -29.8332 -30.6856
6.2000 -0.1461 -0.5629 31.4838 -0.8561 -30.2110 -31.0672
6.1000 -0.1001 -0.5930 31.9713 -0.8597 -30.6187 -31.4785
6.0000 -0.0793 -0.6266 32.4908 -0.8616 -31.0818 -31.9434
5.9000 -0.0596 -0.6651 33.0394 -0.8635 -31.5704 -32.4339
5.8000 -0.0490 -0.7091 33.6114 -0.8643 -32.0870 -32.9513
5.7000 -0.0667 -0.7568 34.1980 -0.8662 -32.6416 -33.5078
5.6000 -0.0929 -0.8076 34.7979 -0.8664 -33.2169 -34.0832
5.5000 -0.1300 -0.8600 35.4391 -0.8661 -33.8430 -34.7091
5.4000 -0.1996 -0.9137 36.0950 -0.8654 -34.5154 -35.3808
5.3000 -0.2887 -0.9699 36.7462 -0.8644 -35.2005 -36.0650
5.2000 -0.4006 -1.0289 37.3828 -0.8625 -35.8920 -36.7545
5.1000 -0.5420 -1.0914 38.0063 -0.8598 -36.5970 -37.4568
5.0000 -0.7036 -1.1581 38.6149 -0.8598 -37.3005 -38.1604
4.9000 -0.8808 -1.2297 39.1559 -0.8595 -37.9474 -38.8069
4.8000 -1.0630 -1.3067 39.6330 -0.8582 -38.5310 -39.3892
4.7000 -1.2222 -1.3901 40.0644 -0.8557 -39.0409 -39.8966
4.6000 -1.3214 -1.4804 40.4349 -0.8528 -39.4231 -40.2759
4.5000 -1.3527 -1.5782 40.7178 -0.8503 -39.6419 -40.4922
4.4000 -1.2907 -1.6843 40.9682 -0.8468 -39.7276 -40.5744
4.3000 -1.1600 -1.7996 41.2016 -0.8439 -39.7181 -40.5620
4.2000 -1.0120 -1.9249 41.4227 -0.8418 -39.6680 -40.5098
4.1000 -0.8697 -2.0614 41.6679 -0.8350 -39.6412 -40.4763
4.0000 -0.7095 -2.2102 41.9541 -0.8227 -39.6308 -40.4535
3.9000 -0.5521 -2.3727 42.2474 -0.8093 -39.6176 -40.4269
3.8000 -0.3710 -2.5503 42.5956 -0.7917 -39.6247 -40.4164
3.7000 -0.1413 -2.7449 42.9776 -0.7702 -39.6040 -40.3742
3.6000 0.1101 -2.9581 43.4217 -0.7441 -39.6095 -40.3536
3.5000 0.3745 -3.1923 43.9445 -0.7136 -39.6642 -40.3777
3.4000 0.6395 -3.4496 44.5339 -0.6737 -39.7710 -40.4448
3.3000 0.9054 -3.7329 45.2199 -0.6275 -39.9542 -40.5817
3.2000 1.1378 -4.0451 46.0119 -0.5710 -40.2580 -40.8290
3.1000 1.3264 -4.3893 46.9035 -0.5046 -40.6832 -41.1878
3.0000 1.4544 -4.7692 47.8945 -0.4273 -41.2438 -41.6710
2.9000 1.4702 -5.1883 49.0067 -0.3318 -42.0165 -42.3483
2.8000 1.3829 -5.6507 50.1903 -0.2245 -42.9323 -43.1568
2.7000 1.2070 -6.1600 51.4302 -0.1041 -43.9593 -44.0634
2.6000 0.9137 -6.7194 52.7321 0.0285 -45.1276 -45.0991
2.5000 0.5185 -7.3308 54.0757 0.1722 -46.3989 -46.2267
2.4000 0.0259 -7.9936 55.4587 0.3306 -47.7701 -47.4395
2.3000 -0.5545 -8.7024 56.8650 0.5022 -49.2195 -48.7173
2.2000 -1.2163 -9.4431 58.2888 0.6823 -50.7447 -50.0624
2.1000 -1.9092 -10.1866 59.7316 0.8756 -52.3302 -51.4546
2.0000 -2.5599 -10.8761 61.1806 1.0774 -53.9421 -52.8646
1.9000 -3.0913 -11.4062 62.6553 1.2887 -55.6295 -54.3408
1.8000 -3.3102 -11.5816 64.1265 1.5103 -57.3657 -55.8555
1.7000 -2.8237 -11.0385 65.6032 1.7372 -59.1261 -57.3889
1.6000 -0.9571 -9.0857 67.0768 1.9743 -60.9229 -58.9487
1.5000 3.6618 -4.3630 68.5558 2.2173 -62.7486 -60.5313
1.4000 13.8453 5.9438 70.0260 2.4672 -64.5921 -62.1249
1.3000 35.8403 28.0777 71.4901 2.7231 -66.4511 -63.7279
