# 0-dist(Ang),1-dGtot,2-dGvac,3-dGele,4-dGdis,5-dGcav,6-dGvdw(kT)
13.5000 0.0000 0.0000 0.0000 0.0000 0.0000 0.0000
13.4000 -0.0138 0.0000 0.2813 -0.0109 -0.2840 -0.2949
13.3000 -0.0276 0.0000 0.5723 -0.0214 -0.5783 -0.5997
13.2000 -0.0226 0.0000 0.8537 -0.0320 -0.8441 -0.8761
13.1000 -0.0219 0.0000 1.1191 -0.0436 -1.0972 -1.1408
13.0000 -0.0112 0.0000 1.3940 -0.0538 -1.3512 -1.4050
12.9000 -0.0082 0.0000 1.6599 -0.0644 -1.6036 -1.6680
12.8000 -0.0102 0.0000 1.9277 -0.0756 -1.8621 -1.9377
12.7000 -0.0053 0.0000 2.2201 -0.0877 -2.1376 -2.2253
12.6000 0.0160 0.0000 2.5029 -0.0996 -2.3874 -2.4870
12.5000 0.0389 0.0000 2.7952 -0.1098 -2.6467 -2.7565
12.4000 0.0403 0.0000 3.0523 -0.1182 -2.8941 -3.0123
12.3000 0.0542 0.0000 3.3731 -0.1286 -3.1906 -3.3192
12.2000 0.0788 0.0000 3.6447 -0.1396 -3.4265 -3.5661
12.1000 0.0953 0.0000 3.9543 -0.1493 -3.7099 -3.8592
12.0000 0.1213 0.0000 4.2716 -0.1579 -3.9926 -4.1505
11.9000 0.1313 -0.0034 4.5529 -0.1697 -4.2487 -4.4184
11.8000 0.1376 -0.0097 4.8525 -0.1824 -4.5230 -4.7055
11.7000 0.1480 -0.0187 5.1346 -0.1931 -4.7750 -4.9681
11.6000 0.1589 -0.0305 5.4424 -0.2029 -5.0502 -5.2530
11.5000 0.1722 -0.0453 5.7361 -0.2135 -5.3052 -5.5187
11.4000 0.1686 -0.0633 6.0471 -0.2223 -5.5930 -5.8152
11.3000 0.2015 -0.0847 6.3510 -0.2319 -5.8330 -6.0649
11.2000 0.2294 -0.1094 6.6754 -0.2425 -6.0942 -6.3367
11.1000 0.2394 -0.1375 6.9565 -0.2528 -6.3268 -6.5796
11.0000 0.2420 -0.1691 7.2723 -0.2663 -6.5949 -6.8612
10.9000 0.2246 -0.2011 7.5918 -0.2765 -6.8894 -7.1660
10.8000 0.2129 -0.2335 7.8606 -0.2871 -7.1270 -7.4141
10.7000 0.1928 -0.2657 8.1682 -0.2966 -7.4130 -7.7096
10.6000 0.1706 -0.2954 8.4712 -0.3063 -7.6987 -8.0050
10.5000 0.1566 -0.3233 8.7667 -0.3164 -7.9701 -8.2865
10.4000 0.1601 -0.3495 9.0753 -0.3281 -8.2374 -8.5655
10.3000 0.1481 -0.3738 9.3715 -0.3395 -8.5099 -8.8494
10.2000 0.1582 -0.3969 9.6782 -0.3495 -8.7735 -9.1230
10.1000 0.1611 -0.4195 9.9992 -0.3616 -9.0570 -9.4186
10.0000 0.1640 -0.4418 10.3500 -0.3731 -9.3711 -9.7442
9.9000 0.1752 -0.4667 10.6762 -0.3832 -9.6513 -10.0344
9.8000 0.1848 -0.4949 11.0063 -0.3943 -9.9325 -10.3268
9.7000 0.2016 -0.5275 11.3357 -0.4058 -10.2009 -10.6067
9.6000 0.2058 -0.5667 11.6885 -0.4161 -10.5001 -10.9162
9.5000 0.2193 -0.6122 12.0104 -0.4288 -10.7502 -11.1789
9.4000 0.2156 -0.6643 12.3592 -0.4393 -11.0400 -11.4793
9.3000 0.2400 -0.7231 12.7066 -0.4522 -11.2915 -11.7436
9.2000 0.2341 -0.7886 13.0494 -0.4633 -11.5636 -12.0269
9.1000 0.2362 -0.8619 13.3988 -0.4740 -11.8266 -12.3006
9.0000 0.2301 -0.9413 13.7317 -0.4848 -12.0756 -12.5603
8.9000 0.2278 -1.0257 14.0953 -0.4968 -12.3449 -12.8418
8.8000 0.2349 -1.1071 14.4342 -0.5082 -12.5840 -13.0922
8.7000 0.2493 -1.1868 14.7736 -0.5221 -12.8155 -13.3375
8.6000 0.2591 -1.2659 15.1416 -0.5343 -13.0823 -13.6166
8.5000 0.2744 -1.3430 15.4880 -0.5441 -13.3266 -13.8707
8.4000 0.2936 -1.4195 15.8324 -0.5533 -13.5660 -14.1192
8.3000 0.3225 -1.4948 16.1912 -0.5626 -13.8112 -14.3738
8.2000 0.3479 -1.5696 16.5286 -0.5721 -14.0390 -14.6111
8.1000 0.3762 -1.6439 16.8918 -0.5810 -14.2907 -14.8717
8.0000 0.4142 -1.7194 17.2657 -0.5910 -14.5413 -15.1323
7.9000 0.4416 -1.7967 17.6265 -0.6017 -14.7865 -15.3883
7.8000 0.4751 -1.8768 17.9984 -0.6108 -15.0359 -15.6466
7.7000 0.5024 -1.9597 18.3643 -0.6188 -15.2835 -15.9023
7.6000 0.5180 -2.0477 18.7405 -0.6254 -15.5497 -16.1751
7.5000 0.5400 -2.1422 19.1232 -0.6333 -15.8082 -16.4415
7.4000 0.5567 -2.2433 19.5151 -0.6424 -16.0730 -16.7155
7.3000 0.5605 -2.3503 19.8935 -0.6498 -16.3332 -16.9831
7.2000 0.5476 -2.4641 20.2977 -0.6596 -16.6269 -17.2865
7.1000 0.4994 -2.5848 20.6787 -0.6701 -16.9248 -17.5949
7.0000 0.4570 -2.7123 21.0893 -0.6808 -17.2396 -17.9205
6.9000 0.3985 -2.8483 21.5135 -0.6920 -17.5752 -18.2672
6.8000 0.3032 -2.9909 21.9107 -0.7038 -17.9132 -18.6170
6.7000 0.2496 -3.1370 22.3115 -0.7173 -18.2082 -18.9255
6.6000 0.1613 -3.2867 22.7561 -0.7317 -18.5769 -19.3087
6.5000 0.0931 -3.4402 23.2035 -0.7452 -18.9255 -19.6707
6.4000 0.0212 -3.5977 23.6377 -0.7610 -19.2581 -20.0192
6.3000 -0.0311 -3.7597 24.0712 -0.7762 -19.5668 -20.3430
6.2000 -0.0660 -3.9265 24.5248 -0.7897 -19.8749 -20.6646
6.1000 -0.0786 -4.0982 24.9754 -0.8011 -20.1549 -20.9560
6.0000 -0.0537 -4.2755 25.4269 -0.8161 -20.3892 -21.2053
5.9000 -0.0102 -4.4597 25.9075 -0.8285 -20.6299 -21.4584
5.8000 0.0694 -4.6509 26.3855 -0.8420 -20.8236 -21.6656
5.7000 0.1608 -4.8497 26.8544 -0.8534 -20.9911 -21.8444
5.6000 0.2921 -5.0564 27.3582 -0.8632 -21.1471 -22.0103
5.5000 0.4308 -5.2716 27.8321 -0.8735 -21.2569 -22.1304
5.4000 0.6008 -5.4961 28.3212 -0.8810 -21.3439 -22.2249
5.3000 0.7735 -5.7297 28.8381 -0.8904 -21.4449 -22.3353
5.2000 0.9502 -5.9729 29.3823 -0.8998 -21.5599 -22.4597
5.1000 1.1087 -6.2269 29.9810 -0.9101 -21.7357 -22.6458
5.0000 1.2121 -6.4924 30.6336 -0.9191 -22.0105 -22.9296
4.9000 1.2499 -6.7698 31.3322 -0.9292 -22.3837 -23.3129
4.8000 1.2015 -7.0605 32.0232 -0.9375 -22.8242 -23.7617
4.7000 1.0725 -7.3650 32.6772 -0.9460 -23.2941 -24.2401
4.6000 0.9347 -7.6846 33.3146 -0.9538 -23.7419 -24.6957
4.5000 0.8168 -8.0206 33.8911 -0.9572 -24.0969 -25.0542
4.4000 0.7887 -8.3741 34.4627 -0.9571 -24.3433 -25.3003
4.3000 0.8236 -8.7467 35.0273 -0.9563 -24.5012 -25.4575
4.2000 0.8851 -9.1402 35.6445 -0.9555 -24.6642 -25.6197
4.1000 0.9605 -9.5562 36.3614 -0.9522 -24.8931 -25.8453
4.0000 1.0209 -9.9967 37.1825 -0.9516 -25.2136 -26.1653
3.9000 1.0445 -10.4641 38.0996 -0.9544 -25.6370 -26.5915
3.8000 1.0280 -10.9607 39.0619 -0.9545 -26.1191 -27.0735
3.7000 1.0235 -11.4895 40.1078 -0.9542 -26.6410 -27.5952
3.6000 0.9975 -12.0536 41.2420 -0.9515 -27.2399 -28.1913
3.5000 1.0103 -12.6564 42.4474 -0.9492 -27.8318 -28.7810
3.4000 1.0432 -13.3021 43.7449 -0.9420 -28.4579 -29.3999
3.3000 1.0987 -13.9950 45.1338 -0.9327 -29.1078 -30.0405
3.2000 1.1576 -14.7403 46.6436 -0.9210 -29.8252 -30.7462
3.1000 1.2272 -15.5436 48.2260 -0.9057 -30.5499 -31.4556
3.0000 1.2696 -16.4112 49.8861 -0.8869 -31.3189 -32.2058
2.9000 1.2956 -17.3501 51.6416 -0.8647 -32.1318 -32.9965
2.8000 1.2923 -18.3681 53.4526 -0.8390 -32.9538 -33.7927
2.7000 1.2444 -19.4733 55.3588 -0.8114 -33.8302 -34.6416
2.6000 1.1247 -20.6741 57.2802 -0.7792 -34.7026 -35.4819
2.5000 0.9339 -21.9785 59.2589 -0.7441 -35.6029 -36.3470
2.4000 0.6658 -23.3924 61.2842 -0.7054 -36.5210 -37.2264
2.3000 0.2967 -24.9174 63.3334 -0.6628 -37.4569 -38.1197
2.2000 -0.1444 -26.5458 65.3690 -0.6171 -38.3508 -38.9679
2.1000 -0.6726 -28.2506 67.4133 -0.5679 -39.2677 -39.8356
2.0000 -1.2285 -29.9670 69.4627 -0.5158 -40.2087 -40.7245
1.9000 -1.6690 -31.5545 71.4799 -0.4606 -41.1342 -41.5947
1.8000 -1.7271 -32.7172 73.4488 -0.4011 -42.0579 -42.4590
1.7000 -0.8232 -32.8297 75.3841 -0.3367 -43.0415 -43.3781
1.6000 2.4078 -30.5341 77.2285 -0.2672 -44.0199 -44.2871
1.5000 11.0436 -22.7490 79.0382 -0.1941 -45.0519 -45.2460
1.4000 32.5180 -2.0502 80.7697 -0.1187 -46.0832 -46.2019
1.3000 86.0389 50.8221 82.4005 -0.0381 -47.1459 -47.1839
