# 0-dist(Ang),1-dGtot,2-dGvac,3-dGele,4-dGdis,5-dGcav,6-dGvdw(kT)
13.5000 0.0000 0.0000 0.0000 0.0000 0.0000 0.0000
13.4000 0.0074 0.0000 0.3764 -0.0189 -0.3502 -0.3690
13.3000 -0.0214 0.0000 0.7547 -0.0347 -0.7414 -0.7760
13.2000 -0.0293 0.0000 1.1065 -0.0489 -1.0869 -1.1357
13.1000 -0.0434 0.0000 1.4482 -0.0641 -1.4275 -1.4916
13.0000 -0.0585 0.0000 1.7975 -0.0797 -1.7762 -1.8559
12.9000 -0.0649 0.0000 2.1544 -0.0985 -2.1208 -2.2193
12.8000 -0.0677 0.0000 2.4912 -0.1151 -2.4437 -2.5588
12.7000 -0.0800 0.0000 2.8619 -0.1286 -2.8132 -2.9418
12.6000 -0.0734 0.0000 3.2198 -0.1470 -3.1461 -3.2931
12.5000 -0.0597 0.0000 3.5900 -0.1641 -3.4854 -3.6496
12.4000 -0.0643 0.0000 3.9604 -0.1781 -3.8465 -4.0246
12.3000 -0.0581 0.0000 4.3183 -0.1947 -4.1816 -4.3763
12.2000 -0.0606 0.0000 4.6510 -0.2093 -4.5023 -4.7115
12.1000 -0.0738 0.0000 5.0082 -0.2247 -4.8572 -5.0819
12.0000 -0.0780 -0.0000 5.3763 -0.2408 -5.2133 -5.4541
11.9000 -0.0820 -0.0027 5.7387 -0.2555 -5.5623 -5.8178
11.8000 -0.0736 -0.0075 6.1414 -0.2709 -5.9363 -6.2073
11.7000 -0.0532 -0.0141 6.5227 -0.2889 -6.2726 -6.5615
11.6000 -0.0487 -0.0217 6.8779 -0.3066 -6.5981 -6.9047
11.5000 -0.0499 -0.0305 7.2473 -0.3245 -6.9420 -7.2664
11.4000 -0.0535 -0.0406 7.6288 -0.3405 -7.3010 -7.6415
11.3000 -0.0618 -0.0520 7.9738 -0.3594 -7.6241 -7.9835
11.2000 -0.0618 -0.0642 8.3430 -0.3774 -7.9632 -8.3406
11.1000 -0.0808 -0.0775 8.7232 -0.3955 -8.3311 -8.7266
11.0000 -0.0999 -0.0915 9.0985 -0.4107 -8.6964 -9.1070
10.9000 -0.0899 -0.1043 9.4373 -0.4296 -8.9935 -9.4231
10.8000 -0.1018 -0.1133 9.8300 -0.4468 -9.3716 -9.8184
10.7000 -0.0960 -0.1184 10.2015 -0.4651 -9.7140 -10.1791
10.6000 -0.0867 -0.1229 10.5411 -0.4848 -10.0202 -10.5050
10.5000 -0.0870 -0.1299 10.9035 -0.5015 -10.3592 -10.8607
10.4000 -0.0744 -0.1405 11.2734 -0.5186 -10.6887 -11.2073
10.3000 -0.0749 -0.1551 11.6307 -0.5378 -11.0127 -11.5505
10.2000 -0.0878 -0.1736 11.9906 -0.5522 -11.3526 -11.9048
10.1000 -0.0924 -0.1953 12.3412 -0.5681 -11.6703 -12.2384
10.0000 -0.0958 -0.2190 12.7035 -0.5839 -11.9964 -12.5803
9.9000 -0.0916 -0.2458 13.0804 -0.5994 -12.3269 -12.9262
9.8000 -0.0952 -0.2748 13.4463 -0.6136 -12.6532 -13.2668
9.7000 -0.1088 -0.3071 13.8015 -0.6288 -12.9744 -13.6032
9.6000 -0.1246 -0.3434 14.1931 -0.6438 -13.3305 -13.9743
9.5000 -0.1395 -0.3813 14.5713 -0.6590 -13.6706 -14.3296
9.4000 -0.1470 -0.4222 14.9826 -0.6734 -14.0341 -14.7075
9.3000 -0.1570 -0.4635 15.3464 -0.6870 -14.3528 -15.0398
9.2000 -0.1539 -0.5013 15.7433 -0.7007 -14.6952 -15.3959
9.1000 -0.1875 -0.5375 16.1517 -0.7148 -15.0870 -15.8018
9.0000 -0.2062 -0.5730 16.5470 -0.7309 -15.4493 -16.1802
8.9000 -0.2217 -0.6080 16.9701 -0.7484 -15.8355 -16.5839
8.8000 -0.2415 -0.6436 17.3479 -0.7617 -16.1842 -16.9459
8.7000 -0.2642 -0.6756 17.7376 -0.7764 -16.5499 -17.3263
8.6000 -0.2915 -0.7088 18.1165 -0.7911 -16.9082 -17.6993
8.5000 -0.3239 -0.7449 18.5246 -0.8100 -17.2938 -18.1038
8.4000 -0.3213 -0.7859 18.8952 -0.8271 -17.6038 -18.4309
8.3000 -0.3530 -0.8325 19.3141 -0.8404 -17.9944 -18.8348
8.2000 -0.3797 -0.8797 19.7069 -0.8565 -18.3505 -19.2070
8.1000 -0.3935 -0.9286 20.1016 -0.8721 -18.6944 -19.5665
8.0000 -0.3973 -0.9796 20.4897 -0.8859 -19.0216 -19.9075
7.9000 -0.3965 -1.0329 20.8792 -0.9027 -19.3402 -20.2429
7.8000 -0.4009 -1.0877 21.2538 -0.9186 -19.6484 -20.5670
7.7000 -0.4125 -1.1441 21.6623 -0.9355 -19.9952 -20.9308
7.6000 -0.3872 -1.2012 22.0252 -0.9517 -20.2594 -21.2112
7.5000 -0.3931 -1.2570 22.4649 -0.9672 -20.6338 -21.6010
7.4000 -0.3621 -1.3124 22.8597 -0.9838 -20.9255 -21.9093
7.3000 -0.3584 -1.3677 23.2923 -1.0003 -21.2827 -22.2831
7.2000 -0.3670 -1.4229 23.7189 -1.0149 -21.6481 -22.6630
7.1000 -0.3784 -1.4780 24.1580 -1.0332 -22.0251 -23.0583
7.0000 -0.4059 -1.5350 24.5883 -1.0524 -22.4067 -23.4591
6.9000 -0.4384 -1.5944 24.9710 -1.0710 -22.7438 -23.8148
6.8000 -0.4833 -1.6581 25.3733 -1.0887 -23.1098 -24.1985
6.7000 -0.5283 -1.7257 25.7429 -1.1075 -23.4379 -24.5454
6.6000 -0.5743 -1.7955 26.1045 -1.1305 -23.7527 -24.8832
6.5000 -0.6019 -1.8689 26.4151 -1.1518 -23.9963 -25.1481
6.4000 -0.6451 -1.9461 26.7946 -1.1714 -24.3222 -25.4936
6.3000 -0.6728 -2.0256 27.1618 -1.1876 -24.6214 -25.8090
6.2000 -0.6805 -2.1087 27.5288 -1.2061 -24.8945 -26.1005
6.1000 -0.6487 -2.1958 27.8998 -1.2238 -25.1288 -26.3526
6.0000 -0.6272 -2.2882 28.3001 -1.2408 -25.3983 -26.6390
5.9000 -0.5821 -2.3869 28.7177 -1.2579 -25.6550 -26.9129
5.8000 -0.5196 -2.4899 29.1423 -1.2749 -25.8969 -27.1718
5.7000 -0.4375 -2.5995 29.6085 -1.2923 -26.1540 -27.4464
5.6000 -0.3371 -2.7157 30.1106 -1.3041 -26.4277 -27.7318
5.5000 -0.2231 -2.8384 30.7165 -1.3218 -26.7792 -28.1010
5.4000 -0.1203 -2.9675 31.3600 -1.3370 -27.1756 -28.5126
5.3000 -0.0156 -3.1037 32.0627 -1.3506 -27.6240 -28.9745
5.2000 0.0781 -3.2482 32.8621 -1.3607 -28.1750 -29.5357
5.1000 0.1329 -3.4019 33.6693 -1.3691 -28.7652 -30.1343
5.0000 0.1586 -3.5648 34.5554 -1.3769 -29.4551 -30.8320
4.9000 0.1335 -3.7380 35.4691 -1.3815 -30.2160 -31.5975
4.8000 -0.0337 -3.9214 36.3277 -1.3886 -31.0512 -32.4398
4.7000 -0.2761 -4.1160 37.1223 -1.4007 -31.8815 -33.2822
4.6000 -0.6170 -4.3237 37.7808 -1.4101 -32.6637 -34.0738
4.5000 -0.9284 -4.5445 38.2931 -1.4250 -33.2520 -34.6770
4.4000 -1.2239 -4.7807 38.7498 -1.4448 -33.7482 -35.1929
4.3000 -1.4802 -5.0329 39.1395 -1.4699 -34.1168 -35.5867
4.2000 -1.6538 -5.3024 39.5050 -1.4924 -34.3640 -35.8564
4.1000 -1.8189 -5.5917 39.8244 -1.5182 -34.5333 -36.0515
4.0000 -1.9306 -5.9024 40.1485 -1.5433 -34.6333 -36.1766
3.9000 -1.9663 -6.2373 40.4541 -1.5660 -34.6170 -36.1830
3.8000 -1.9225 -6.5982 40.7877 -1.5835 -34.5285 -36.1120
3.7000 -1.7874 -6.9879 41.1217 -1.5941 -34.3270 -35.9211
3.6000 -1.5412 -7.4086 41.4758 -1.6018 -34.0065 -35.6083
3.5000 -1.2333 -7.8637 41.8389 -1.5977 -33.6105 -35.2083
3.4000 -0.8367 -8.3572 42.2660 -1.5920 -33.1532 -34.7452
3.3000 -0.3790 -8.8935 42.8106 -1.5810 -32.7149 -34.2959
3.2000 0.1498 -9.4768 43.4871 -1.5634 -32.2969 -33.8604
3.1000 0.6639 -10.1129 44.2778 -1.5379 -31.9629 -33.5008
3.0000 1.2229 -10.8053 45.1648 -1.5101 -31.6263 -33.1364
2.9000 1.7430 -11.5615 46.2591 -1.4757 -31.4786 -32.9542
2.8000 2.1938 -12.3885 47.4986 -1.4361 -31.4799 -32.9160
2.7000 2.4937 -13.2937 48.8840 -1.3875 -31.7088 -33.0962
2.6000 2.6157 -14.2848 50.4394 -1.3337 -32.2047 -33.5385
2.5000 2.5306 -15.3692 52.1651 -1.2722 -32.9926 -34.2649
2.4000 2.2260 -16.5530 54.0084 -1.2031 -34.0259 -35.2289
2.3000 1.6326 -17.8384 55.9363 -1.1272 -35.3376 -36.4649
2.2000 0.8472 -19.2185 57.9368 -1.0468 -36.8240 -37.8708
2.1000 -0.2116 -20.6696 59.9673 -0.9565 -38.5525 -39.5090
2.0000 -1.3885 -22.1341 62.0162 -0.8599 -40.4103 -41.2702
1.9000 -2.6019 -23.4855 64.0457 -0.7586 -42.4033 -43.1619
1.8000 -3.5067 -24.4548 66.0798 -0.6503 -44.4811 -45.1315
1.7000 -3.5092 -24.4678 68.1312 -0.5440 -46.6283 -47.1723
1.6000 -1.3489 -22.2635 70.1426 -0.4354 -48.7923 -49.2277
1.5000 5.8796 -14.9435 72.1384 -0.3287 -50.9863 -51.3150
1.4000 25.2816 4.5650 74.1195 -0.2223 -53.1803 -53.4026
1.3000 75.3970 54.8379 76.0544 -0.1145 -55.3804 -55.4949
