# 0-dist(Ang),1-dGtot,2-dGvac,3-dGele,4-dGdis,5-dGcav,6-dGvdw(kT)
13.5000 0.0000 0.0000 0.0000 0.0000 0.0000 0.0000
13.4000 -0.0020 0.0000 -0.8832 -0.0303 0.9115 0.8812
13.3000 -0.0122 0.0000 -1.7691 -0.0606 1.8175 1.7569
13.2000 -0.0237 0.0000 -2.6729 -0.0899 2.7391 2.6492
13.1000 -0.0119 0.0000 -3.5654 -0.1188 3.6723 3.5535
13.0000 -0.0020 0.0000 -4.4464 -0.1496 4.5940 4.4444
12.9000 0.0127 0.0000 -5.3270 -0.1803 5.5200 5.3397
12.8000 0.0345 0.0000 -6.2042 -0.2104 6.4491 6.2386
12.7000 0.0617 0.0000 -7.0800 -0.2410 7.3828 7.1417
12.6000 0.0863 0.0000 -7.9258 -0.2718 8.2839 8.0122
12.5000 0.1113 0.0000 -8.7916 -0.3019 9.2048 8.9029
12.4000 0.1310 0.0000 -9.6460 -0.3317 10.1087 9.7770
12.3000 0.1517 0.0000 -10.5063 -0.3617 11.0197 10.6580
12.2000 0.1759 0.0000 -11.3709 -0.3918 11.9387 11.5469
12.1000 0.1887 0.0000 -12.2311 -0.4214 12.8412 12.4198
12.0000 0.2001 -0.0000 -13.0897 -0.4522 13.7421 13.2899
11.9000 0.2045 -0.0039 -13.9359 -0.4835 14.6279 14.1444
11.8000 0.2087 -0.0110 -14.7962 -0.5146 15.5305 15.0159
11.7000 0.2029 -0.0228 -15.6650 -0.5460 16.4368 15.8908
11.6000 0.1924 -0.0415 -16.5275 -0.5768 17.3384 16.7616
11.5000 0.1752 -0.0660 -17.3973 -0.6075 18.2462 17.6386
11.4000 0.1591 -0.0964 -18.2725 -0.6387 19.1667 18.5280
11.3000 0.1414 -0.1320 -19.1554 -0.6694 20.0983 19.4289
11.2000 0.1259 -0.1724 -20.0317 -0.6992 21.0292 20.3300
11.1000 0.1096 -0.2170 -20.8952 -0.7293 21.9512 21.2219
11.0000 0.0930 -0.2639 -21.7688 -0.7592 22.8849 22.1257
10.9000 0.0872 -0.3071 -22.6330 -0.7896 23.8170 23.0274
10.8000 0.0929 -0.3473 -23.4960 -0.8207 24.7570 23.9363
10.7000 0.1090 -0.3828 -24.3612 -0.8513 25.7043 24.8530
10.6000 0.1246 -0.4082 -25.2191 -0.8811 26.6331 25.7520
10.5000 0.1458 -0.4258 -26.0678 -0.9099 27.5493 26.6394
10.4000 0.1798 -0.4385 -26.9085 -0.9398 28.4667 27.5268
10.3000 0.2082 -0.4478 -27.7485 -0.9695 29.3741 28.4046
10.2000 0.2359 -0.4569 -28.5886 -0.9994 30.2809 29.2815
10.1000 0.2600 -0.4682 -29.4355 -1.0291 31.1930 30.1639
10.0000 0.2767 -0.4849 -30.2646 -1.0587 32.0850 31.0263
9.9000 0.2886 -0.5062 -31.0997 -1.0893 32.9839 31.8946
9.8000 0.2990 -0.5334 -31.9317 -1.1188 33.8830 32.7642
9.7000 0.3010 -0.5669 -32.7647 -1.1486 34.7814 33.6327
9.6000 0.2958 -0.6085 -33.5895 -1.1787 35.6725 34.4938
9.5000 0.2827 -0.6582 -34.4206 -1.2097 36.5714 35.3616
9.4000 0.2722 -0.7157 -35.2499 -1.2400 37.4778 36.2378
9.3000 0.2478 -0.7797 -36.0835 -1.2704 38.3814 37.1110
9.2000 0.2242 -0.8492 -36.9272 -1.3007 39.3013 38.0006
9.1000 0.2110 -0.9246 -37.7753 -1.3305 40.2414 38.9109
9.0000 0.1943 -1.0054 -38.6233 -1.3615 41.1845 39.8230
8.9000 0.1806 -1.0909 -39.4560 -1.3926 42.1202 40.7275
8.8000 0.1781 -1.1710 -40.2986 -1.4221 43.0698 41.6477
8.7000 0.1843 -1.2460 -41.1303 -1.4533 44.0139 42.5606
8.6000 0.2149 -1.3167 -41.9548 -1.4844 44.9708 43.4865
8.5000 0.2553 -1.3843 -42.7796 -1.5148 45.9342 44.4193
8.4000 0.2892 -1.4467 -43.5930 -1.5466 46.8755 45.3288
8.3000 0.3285 -1.5084 -44.3865 -1.5768 47.8002 46.2234
8.2000 0.3696 -1.5706 -45.1726 -1.6079 48.7207 47.1128
8.1000 0.4038 -1.6359 -45.9602 -1.6396 49.6396 48.0000
8.0000 0.4171 -1.7084 -46.7258 -1.6701 50.5215 48.8514
7.9000 0.4355 -1.7917 -47.4909 -1.7004 51.4187 49.7183
7.8000 0.4252 -1.8853 -48.2508 -1.7316 52.2931 50.5616
7.7000 0.4039 -1.9885 -48.9878 -1.7626 53.1430 51.3804
7.6000 0.3642 -2.1008 -49.7379 -1.7939 53.9972 52.2032
7.5000 0.3115 -2.2175 -50.4731 -1.8246 54.8268 53.0023
7.4000 0.2541 -2.3385 -51.2099 -1.8564 55.6590 53.8026
7.3000 0.1858 -2.4654 -51.9510 -1.8880 56.4904 54.6024
7.2000 0.1252 -2.5983 -52.7190 -1.9188 57.3615 55.4427
7.1000 0.0646 -2.7353 -53.4914 -1.9492 58.2406 56.2914
7.0000 0.0278 -2.8760 -54.2651 -1.9785 59.1475 57.1689
6.9000 0.0050 -3.0217 -55.0694 -2.0078 60.1040 58.0962
6.8000 0.0042 -3.1733 -55.8842 -2.0360 61.0978 59.0618
6.7000 0.0338 -3.3313 -56.7014 -2.0639 62.1304 60.0665
6.6000 0.0789 -3.4935 -57.5319 -2.0912 63.1955 61.1043
6.5000 0.1643 -3.6601 -58.3754 -2.1181 64.3179 62.1997
6.4000 0.2504 -3.8321 -59.1929 -2.1461 65.4214 63.2753
6.3000 0.3524 -4.0088 -60.0006 -2.1723 66.5341 64.3618
6.2000 0.4664 -4.1917 -60.7884 -2.1996 67.6461 65.4465
6.1000 0.5799 -4.3814 -61.5289 -2.2269 68.7170 66.4901
6.0000 0.6832 -4.5784 -62.2829 -2.2547 69.7991 67.5444
5.9000 0.7848 -4.7834 -62.9654 -2.2832 70.8167 68.5335
5.8000 0.8632 -4.9971 -63.6044 -2.3133 71.7778 69.4645
5.7000 0.9287 -5.2228 -64.2131 -2.3448 72.7092 70.3644
5.6000 0.9607 -5.4605 -64.7464 -2.3770 73.5443 71.1673
5.5000 0.9597 -5.7108 -65.2106 -2.4100 74.2908 71.8808
5.4000 0.8975 -5.9718 -65.6297 -2.4424 74.9411 72.4988
5.3000 0.7820 -6.2443 -65.9908 -2.4747 75.4915 73.0169
5.2000 0.5807 -6.5299 -66.3213 -2.5066 75.9383 73.4317
5.1000 0.3095 -6.8298 -66.6428 -2.5418 76.3236 73.7818
5.0000 -0.0215 -7.1434 -66.9739 -2.5778 76.6734 74.0956
4.9000 -0.3992 -7.4730 -67.3572 -2.6147 77.0455 74.4308
4.8000 -0.7763 -7.8188 -67.8131 -2.6528 77.5081 74.8553
4.7000 -1.0875 -8.1814 -68.3363 -2.6882 78.1181 75.4299
4.6000 -1.2801 -8.5626 -68.9439 -2.7215 78.9477 76.2262
4.5000 -1.3335 -8.9637 -69.6042 -2.7499 79.9840 77.2341
4.4000 -1.2338 -9.3861 -70.3210 -2.7740 81.2469 78.4729
4.3000 -1.0033 -9.8310 -71.0521 -2.7937 82.6730 79.8793
4.2000 -0.6887 -10.3000 -71.7857 -2.8120 84.2084 81.3965
4.1000 -0.3011 -10.7946 -72.5221 -2.8276 85.8429 83.0153
4.0000 0.1799 -11.3164 -73.2548 -2.8427 87.5934 84.7507
3.9000 0.7865 -11.8681 -73.9802 -2.8551 89.4895 86.6344
3.8000 1.5174 -12.4521 -74.6886 -2.8647 91.5225 88.6578
3.7000 2.3674 -13.0713 -75.3333 -2.8709 93.6426 90.7717
3.6000 3.2493 -13.7290 -75.8930 -2.8749 95.7457 92.8709
3.5000 4.1057 -14.4287 -76.3603 -2.8717 97.7659 94.8942
3.4000 4.8648 -15.1742 -76.7400 -2.8611 99.6395 96.7785
3.3000 5.4992 -15.9699 -77.0092 -2.8446 101.3223 98.4778
3.2000 5.9726 -16.8205 -77.1362 -2.8209 102.7493 99.9285
3.1000 6.2842 -17.7309 -77.1495 -2.7925 103.9564 101.1639
3.0000 6.3957 -18.7067 -77.0426 -2.7581 104.9024 102.1444
2.9000 6.2958 -19.7534 -76.8351 -2.7159 105.5996 102.8837
2.8000 6.0157 -20.8763 -76.5212 -2.6684 106.0809 103.4125
2.7000 5.5423 -22.0802 -76.1152 -2.6164 106.3534 103.7370
2.6000 4.8959 -23.3680 -75.6377 -2.5603 106.4614 103.9011
2.5000 4.1017 -24.7395 -75.1022 -2.4992 106.4421 103.9428
2.4000 3.1497 -26.1880 -74.5045 -2.4355 106.2771 103.8417
2.3000 2.0997 -27.6958 -73.8732 -2.3676 106.0358 103.6682
2.2000 0.9678 -29.2251 -73.1994 -2.2969 105.6886 103.3917
2.1000 -0.1550 -30.7026 -72.5048 -2.2235 105.2753 103.0518
2.0000 -1.1273 -31.9919 -71.7896 -2.1470 104.8006 102.6536
1.9000 -1.6999 -32.8424 -71.0663 -2.0686 104.2769 102.2083
1.8000 -1.4198 -32.7914 -70.3419 -1.9900 103.7030 101.7130
1.7000 0.5958 -30.9715 -69.6126 -1.9080 103.0875 101.1795
1.6000 6.0228 -25.7085 -68.8880 -1.8251 102.4440 100.6189
1.5000 18.2245 -13.6314 -68.1711 -1.7403 101.7669 100.0265
1.4000 44.3969 12.4531 -67.4757 -1.6555 101.0744 99.4189
1.3000 101.1143 69.1173 -66.7887 -1.5705 100.3555 98.7851
