# 0-dist(Ang),1-dGtot,2-dGvac,3-dGele,4-dGdis,5-dGcav,6-dGvdw(kT)
13.5000 0.0000 0.0000 0.0000 0.0000 0.0000 0.0000
13.4000 -0.0350 -0.0806 -0.8581 -0.0340 0.9378 0.9038
13.3000 -0.0685 -0.1686 -1.7105 -0.0633 1.8739 1.8107
13.2000 -0.1043 -0.2554 -2.5780 -0.0948 2.8239 2.7291
13.1000 -0.1082 -0.3346 -3.4245 -0.1269 3.7779 3.6509
13.0000 -0.0928 -0.4043 -4.2757 -0.1574 4.7446 4.5872
12.9000 -0.0561 -0.4537 -5.1194 -0.1862 5.7035 5.5173
12.8000 0.0071 -0.4864 -5.9556 -0.2169 6.6662 6.4493
12.7000 0.1063 -0.5045 -6.7835 -0.2481 7.6428 7.3947
12.6000 0.1843 -0.5157 -7.6064 -0.2784 8.5851 8.3067
12.5000 0.2650 -0.5352 -8.4328 -0.3084 9.5417 9.2333
12.4000 0.3510 -0.5736 -9.2698 -0.3399 10.5345 10.1946
12.3000 0.4092 -0.6305 -10.0754 -0.3708 11.4861 11.1153
12.2000 0.4352 -0.7096 -10.8864 -0.4023 12.4339 12.0316
12.1000 0.4613 -0.8102 -11.6869 -0.4339 13.3926 12.9586
12.0000 0.4483 -0.9329 -12.4845 -0.4649 14.3309 13.8660
11.9000 0.4254 -1.0622 -13.2678 -0.4971 15.2527 14.7556
11.8000 0.4039 -1.2019 -14.0425 -0.5282 16.1768 15.6486
11.7000 0.3706 -1.3524 -14.7988 -0.5590 17.0810 16.5220
11.6000 0.3335 -1.5142 -15.5265 -0.5911 17.9655 17.3744
11.5000 0.2932 -1.6877 -16.2553 -0.6227 18.8590 18.2363
11.4000 0.2512 -1.8729 -16.9931 -0.6537 19.7710 19.1172
11.3000 0.1976 -2.0706 -17.7227 -0.6866 20.6775 19.9909
11.2000 0.1486 -2.2808 -18.4411 -0.7191 21.5896 20.8705
11.1000 0.1060 -2.4980 -19.1728 -0.7491 22.5259 21.7769
11.0000 0.0807 -2.7131 -19.8934 -0.7797 23.4669 22.6872
10.9000 0.0766 -2.9300 -20.5807 -0.8116 24.3990 23.5874
10.8000 0.0982 -3.1487 -21.2690 -0.8413 25.3572 24.5159
10.7000 0.1328 -3.3700 -21.9573 -0.8735 26.3336 25.4601
10.6000 0.1582 -3.6019 -22.6306 -0.9059 27.2965 26.3906
10.5000 0.2079 -3.8491 -23.3023 -0.9371 28.2962 27.3591
10.4000 0.2552 -4.1131 -23.9527 -0.9688 29.2900 28.3211
10.3000 0.3147 -4.3927 -24.5771 -1.0015 30.2861 29.2846
10.2000 0.3796 -4.6912 -25.1941 -1.0337 31.2986 30.2649
10.1000 0.4370 -5.0069 -25.7961 -1.0658 32.3058 31.2400
10.0000 0.5041 -5.3374 -26.3614 -1.0990 33.3020 32.2030
9.9000 0.5541 -5.6824 -26.9159 -1.1310 34.2835 33.1525
9.8000 0.5882 -6.0415 -27.4421 -1.1634 35.2354 34.0720
9.7000 0.6268 -6.4173 -27.9552 -1.1973 36.1968 34.9995
9.6000 0.6324 -6.8103 -28.4515 -1.2293 37.1236 35.8943
9.5000 0.6235 -7.2211 -28.9413 -1.2629 38.0488 36.7859
9.4000 0.5893 -7.6500 -29.4118 -1.2948 38.9460 37.6512
9.3000 0.5432 -8.0978 -29.8947 -1.3273 39.8629 38.5356
9.2000 0.4946 -8.5650 -30.3472 -1.3594 40.7662 39.4068
9.1000 0.4411 -9.0525 -30.8112 -1.3919 41.6967 40.3048
9.0000 0.4133 -9.5596 -31.2336 -1.4233 42.6299 41.2066
8.9000 0.3748 -10.0881 -31.6567 -1.4550 43.5747 42.1197
8.8000 0.3659 -10.6383 -32.0324 -1.4858 44.5224 43.0366
8.7000 0.3715 -11.2104 -32.4299 -1.5181 45.5299 44.0118
8.6000 0.3828 -11.8061 -32.7741 -1.5503 46.5134 44.9631
8.5000 0.4152 -12.4265 -33.0845 -1.5813 47.5077 45.9265
8.4000 0.4615 -13.0720 -33.3613 -1.6104 48.5055 46.8951
8.3000 0.5298 -13.7443 -33.5992 -1.6413 49.5148 47.8735
8.2000 0.6314 -14.4441 -33.7802 -1.6734 50.5293 48.8559
8.1000 0.7406 -15.1722 -33.9226 -1.7053 51.5409 49.8356
8.0000 0.8701 -15.9307 -34.0130 -1.7402 52.5542 50.8140
7.9000 1.0252 -16.7209 -34.0405 -1.7763 53.5631 51.7868
7.8000 1.1735 -17.5449 -33.9892 -1.8136 54.5213 52.7077
7.7000 1.3241 -18.4033 -33.8857 -1.8519 55.4653 53.6133
7.6000 1.4253 -19.2978 -33.7110 -1.8945 56.3289 54.4344
7.5000 1.4713 -20.2312 -33.4639 -1.9359 57.1026 55.1667
7.4000 1.3690 -21.2048 -33.1644 -1.9771 57.7157 55.7386
7.3000 1.1275 -22.2206 -32.7945 -2.0190 58.1620 56.1430
7.2000 0.7400 -23.2806 -32.4355 -2.0579 58.5146 56.4567
7.1000 0.2309 -24.3859 -32.1349 -2.0949 58.8471 56.7522
7.0000 -0.2924 -25.5393 -31.9271 -2.1290 59.3035 57.1744
6.9000 -0.7480 -26.7437 -31.8569 -2.1639 60.0169 57.8531
6.8000 -1.0967 -28.0021 -31.8890 -2.1936 60.9883 58.7947
6.7000 -1.2138 -29.3168 -31.9854 -2.2220 62.3109 60.0889
6.6000 -1.1191 -30.6918 -32.0926 -2.2460 63.9118 61.6657
6.5000 -0.8773 -32.1302 -32.1052 -2.2677 65.6263 63.3586
6.4000 -0.5405 -33.6363 -31.9969 -2.2851 67.3782 65.0931
6.3000 -0.1626 -35.2144 -31.6679 -2.2993 69.0193 66.7200
6.2000 0.2503 -36.8684 -31.1340 -2.3098 70.5629 68.2531
6.1000 0.7354 -38.6038 -30.3863 -2.3175 72.0434 69.7258
6.0000 1.2830 -40.4261 -29.3820 -2.3233 73.4148 71.0915
5.9000 1.8664 -42.3416 -28.1390 -2.3278 74.6752 72.3474
5.8000 2.4816 -44.3572 -26.6466 -2.3294 75.8152 73.4858
5.7000 3.0850 -46.4810 -24.8827 -2.3294 76.7785 74.4491
5.6000 3.6522 -48.7204 -22.8605 -2.3287 77.5622 75.2335
5.5000 4.1427 -51.0855 -20.6109 -2.3247 78.1643 75.8396
5.4000 4.4518 -53.5869 -18.1338 -2.3215 78.4942 76.1727
5.3000 4.6097 -56.2352 -15.4841 -2.3160 78.6453 76.3293
5.2000 4.5613 -59.0436 -12.6782 -2.3099 78.5934 76.2834
5.1000 4.2905 -62.0253 -9.7394 -2.3023 78.3578 76.0555
5.0000 3.7925 -65.1943 -6.6973 -2.2921 77.9766 75.6845
4.9000 3.0357 -68.5652 -3.6009 -2.2802 77.4824 75.2021
4.8000 2.0434 -72.1510 -0.4452 -2.2678 76.9080 74.6402
4.7000 0.8063 -75.9617 2.7669 -2.2522 76.2537 74.0015
4.6000 -0.6710 -79.9985 6.0122 -2.2338 75.5497 73.3159
4.5000 -2.3559 -84.2471 9.2896 -2.2137 74.8157 72.6020
4.4000 -4.2146 -88.6604 12.5898 -2.1887 74.0452 71.8565
4.3000 -6.1366 -93.1280 15.9218 -2.1617 73.2317 71.0700
4.2000 -7.8862 -97.4157 19.2672 -2.1314 72.3940 70.2626
4.1000 -8.9522 -101.0392 22.6334 -2.0977 71.5517 69.4539
4.0000 -8.3426 -102.9950 26.0177 -2.0610 70.6961 68.6351
3.9000 -3.9379 -101.1527 29.3966 -2.0209 69.8394 67.8186
3.8000 8.9875 -90.7968 32.7731 -1.9743 68.9857 67.0114
3.7000 41.4612 -60.8887 36.1429 -1.9269 68.1342 66.2072
3.6000 121.1900 16.2811 39.4927 -1.8762 67.2929 65.4167
3.5000 323.7158 216.2818 42.7708 -1.8232 66.4873 64.6641
3.4000 875.8443 765.9334 45.9791 -1.7657 65.6987 63.9330
3.3000 2537.2365 2424.9030 49.0855 -1.7067 64.9577 63.2510
3.2000 8193.3783 8078.7170 52.0467 -1.6448 64.2665 62.6216
3.1000 30538.8936 30421.9942 54.8639 -1.5831 63.6266 62.0435
3.0000 136183.2833 136064.4006 57.4830 -1.5181 63.0648 61.5467
2.9000 760059.7107 759939.6480 59.9001 -1.4536 62.5496 61.0960
2.8000 5669819.1335 5669703.7513 62.0856 -1.3885 62.1081 60.7196
2.7000 62766085.5652 62766012.3870 64.0387 -1.3260 61.7441 60.4181
2.6000 1232092475.3125 1232093630.6196 65.7589 -1.2631 61.4403 60.1772
2.5000 59701211660.2190 59701275488.0717 67.2336 -1.2013 61.1921 59.9908
2.4000 14222542605922.7129 14222551421713.7188 68.5068 -1.1404 61.0080 59.8675
2.3000 19109213501059260.0000 19109235861591160.0000 69.6213 -1.0791 60.8589 59.7798
2.2000 1173723879892656.0000 1173725088912908.0000 70.6299 -1.0222 60.7326 59.7104
2.1000 1227894586678.0000 1227896190990.2500 71.5844 -0.9656 60.6081 59.6424
2.0000 11068614407.3767 11068599846.2864 72.5395 -0.9086 60.4429 59.5343
1.9000 826756182.8802 826734622.6777 73.4962 -0.8526 60.2723 59.4197
1.8000 3749133239.8353 3749114918.4599 74.5187 -0.7962 60.0621 59.2658
1.7000 43420043288.6964 43420061829.2132 75.6293 -0.7385 59.7631 59.0246
1.6000 933537758603.3953 933539362893.0116 76.8606 -0.6778 59.3680 58.6902
1.5000 54240492787426.5625 54240559933984.0234 78.2125 -0.6154 58.8520 58.2366
1.4000 18684279853724004.0000 18684299628261332.0000 79.6740 -0.5500 58.2203 57.6703
1.3000 50801674712616632320.0000 50801746905213304832.0000 81.1895 -0.4825 57.5381 57.0556
