# 0-dist(Ang),1-dGtot,2-dGvac,3-dGele,4-dGdis,5-dGcav,6-dGvdw(kT)
13.5000 0.0000 0.0000 0.0000 0.0000 0.0000 0.0000
13.4000 -0.0047 0.0000 -0.6919 -0.0070 0.6942 0.6873
13.3000 -0.0096 0.0000 -1.3754 -0.0128 1.3787 1.3658
13.2000 -0.0194 0.0000 -2.0638 -0.0187 2.0631 2.0444
13.1000 -0.0272 0.0000 -2.7494 -0.0255 2.7477 2.7222
13.0000 -0.0299 0.0000 -3.4452 -0.0301 3.4454 3.4153
12.9000 -0.0327 0.0000 -4.1344 -0.0361 4.1378 4.1018
12.8000 -0.0313 0.0000 -4.8145 -0.0417 4.8249 4.7832
12.7000 -0.0204 0.0000 -5.5159 -0.0465 5.5420 5.4955
12.6000 -0.0170 0.0000 -6.1759 -0.0527 6.2117 6.1590
12.5000 -0.0036 0.0000 -6.8675 -0.0575 6.9215 6.8640
12.4000 0.0177 0.0000 -7.5674 -0.0636 7.6487 7.5851
12.3000 0.0425 0.0000 -8.2511 -0.0691 8.3627 8.2936
12.2000 0.0513 0.0000 -8.9546 -0.0745 9.0805 9.0061
12.1000 0.0767 0.0000 -9.6384 -0.0825 9.7977 9.7152
12.0000 0.0850 0.0000 -10.3076 -0.0863 10.4790 10.3927
11.9000 0.0799 -0.0026 -10.9941 -0.0948 11.1716 11.0767
11.8000 0.0659 -0.0071 -11.6668 -0.1011 11.8412 11.7401
11.7000 0.0643 -0.0138 -12.3637 -0.1076 12.5494 12.4418
11.6000 0.0517 -0.0226 -13.0141 -0.1142 13.2025 13.0884
11.5000 0.0308 -0.0335 -13.6921 -0.1194 13.8758 13.7564
11.4000 0.0259 -0.0468 -14.3718 -0.1265 14.5710 14.4445
11.3000 0.0121 -0.0618 -15.0721 -0.1314 15.2774 15.1460
11.2000 -0.0014 -0.0783 -15.7763 -0.1374 15.9906 15.8532
11.1000 -0.0105 -0.0958 -16.4422 -0.1433 16.6708 16.5275
11.0000 -0.0234 -0.1140 -17.1426 -0.1504 17.3835 17.2331
10.9000 -0.0303 -0.1295 -17.7992 -0.1572 18.0555 17.8983
10.8000 -0.0312 -0.1435 -18.4721 -0.1615 18.7457 18.5843
10.7000 -0.0197 -0.1556 -19.1622 -0.1674 19.4655 19.2981
10.6000 -0.0103 -0.1661 -19.8243 -0.1712 20.1512 19.9800
10.5000 -0.0003 -0.1748 -20.5363 -0.1754 20.8864 20.7110
10.4000 0.0227 -0.1821 -21.2163 -0.1800 21.6012 21.4212
10.3000 0.0492 -0.1880 -21.8881 -0.1849 22.3103 22.1254
10.2000 0.0643 -0.1935 -22.5832 -0.1899 23.0308 22.8410
10.1000 0.0853 -0.2008 -23.2479 -0.1935 23.7276 23.5341
10.0000 0.1144 -0.2088 -23.9156 -0.1971 24.4358 24.2388
9.9000 0.1350 -0.2182 -24.5996 -0.2026 25.1553 24.9528
9.8000 0.1377 -0.2308 -25.2675 -0.2089 25.8449 25.6360
9.7000 0.1424 -0.2470 -25.9418 -0.2144 26.5457 26.3313
9.6000 0.1426 -0.2658 -26.6086 -0.2206 27.2377 27.0171
9.5000 0.1521 -0.2873 -27.2749 -0.2263 27.9407 27.7144
9.4000 0.1451 -0.3117 -27.9465 -0.2316 28.6351 28.4035
9.3000 0.1303 -0.3397 -28.6007 -0.2386 29.3095 29.0709
9.2000 0.1099 -0.3695 -29.2721 -0.2427 29.9944 29.7517
9.1000 0.0918 -0.4019 -29.9675 -0.2479 30.7092 30.4613
9.0000 0.0673 -0.4358 -30.6493 -0.2540 31.4066 31.1526
8.9000 0.0472 -0.4709 -31.3462 -0.2606 32.1249 31.8643
8.8000 0.0243 -0.5037 -32.0258 -0.2669 32.8208 32.5538
8.7000 0.0329 -0.5323 -32.7062 -0.2741 33.5457 33.2715
8.6000 0.0270 -0.5582 -33.3831 -0.2797 34.2481 33.9684
8.5000 0.0337 -0.5815 -34.0515 -0.2856 34.9522 34.6666
8.4000 0.0406 -0.6026 -34.7186 -0.2924 35.6542 35.3618
8.3000 0.0680 -0.6217 -35.3895 -0.2996 36.3788 36.0793
8.2000 0.0982 -0.6391 -36.0514 -0.3065 37.0953 36.7888
8.1000 0.1336 -0.6560 -36.7191 -0.3120 37.8208 37.5089
8.0000 0.1642 -0.6742 -37.3690 -0.3180 38.5256 38.2076
7.9000 0.1903 -0.6943 -38.0252 -0.3225 39.2324 38.9099
7.8000 0.2138 -0.7163 -38.7033 -0.3263 39.9599 39.6336
7.7000 0.2333 -0.7409 -39.3501 -0.3303 40.6548 40.3245
7.6000 0.2602 -0.7680 -39.9990 -0.3338 41.3612 41.0275
7.5000 0.2677 -0.7974 -40.6621 -0.3368 42.0642 41.7275
7.4000 0.2700 -0.8282 -41.3202 -0.3402 42.7587 42.4186
7.3000 0.2619 -0.8612 -41.9929 -0.3427 43.4590 43.1163
7.2000 0.2444 -0.8962 -42.6911 -0.3418 44.1737 43.8320
7.1000 0.2338 -0.9328 -43.4030 -0.3421 44.9119 44.5699
7.0000 0.2193 -0.9713 -44.1080 -0.3404 45.6395 45.2991
6.9000 0.2046 -1.0116 -44.8434 -0.3402 46.4002 46.0600
6.8000 0.1925 -1.0538 -45.5904 -0.3367 47.1738 46.8371
6.7000 0.1666 -1.0960 -46.3098 -0.3345 47.9071 47.5726
6.6000 0.1718 -1.1377 -47.0342 -0.3333 48.6771 48.3439
6.5000 0.1733 -1.1805 -47.7505 -0.3319 49.4365 49.1046
6.4000 0.1926 -1.2239 -48.4638 -0.3306 50.2111 49.8805
6.3000 0.2082 -1.2685 -49.1274 -0.3323 50.9366 50.6043
6.2000 0.2268 -1.3140 -49.7998 -0.3325 51.6732 51.3406
6.1000 0.2426 -1.3604 -50.4145 -0.3375 52.3552 52.0177
6.0000 0.2663 -1.4083 -50.9854 -0.3448 53.0049 52.6601
5.9000 0.2947 -1.4602 -51.5379 -0.3518 53.6448 53.2930
5.8000 0.3252 -1.5154 -52.0320 -0.3604 54.2332 53.8727
5.7000 0.3414 -1.5742 -52.4755 -0.3697 54.7610 54.3913
5.6000 0.3531 -1.6370 -52.8807 -0.3775 55.2485 54.8710
5.5000 0.3362 -1.7045 -53.2424 -0.3839 55.6671 55.2833
5.4000 0.3018 -1.7766 -53.5679 -0.3894 56.0358 55.6464
5.3000 0.2086 -1.8540 -53.8947 -0.3951 56.3524 55.9574
5.2000 0.0852 -1.9360 -54.2368 -0.3986 56.6565 56.2580
5.1000 -0.0720 -2.0235 -54.6252 -0.4008 56.9775 56.5767
5.0000 -0.2688 -2.1173 -55.0675 -0.4027 57.3187 56.9159
4.9000 -0.4887 -2.2180 -55.5906 -0.4043 57.7242 57.3199
4.8000 -0.6488 -2.3261 -56.2561 -0.4043 58.3377 57.9335
4.7000 -0.7560 -2.4419 -56.9933 -0.4003 59.0796 58.6792
4.6000 -0.7519 -2.5664 -57.7856 -0.3934 59.9935 59.6001
4.5000 -0.6343 -2.7005 -58.6607 -0.3849 61.1117 60.7268
4.4000 -0.4370 -2.8451 -59.5725 -0.3727 62.3534 61.9806
4.3000 -0.1749 -3.0015 -60.4660 -0.3579 63.6504 63.2925
4.2000 0.1016 -3.1706 -61.3839 -0.3371 64.9931 64.6560
4.1000 0.3723 -3.3541 -62.3059 -0.3114 66.3436 66.0322
4.0000 0.6484 -3.5532 -63.2097 -0.2811 67.6924 67.4114
3.9000 0.9119 -3.7698 -64.1602 -0.2459 69.0880 68.8421
3.8000 1.1859 -4.0057 -65.0947 -0.2042 70.4906 70.2865
3.7000 1.4629 -4.2632 -65.9924 -0.1572 71.8759 71.7187
3.6000 1.7035 -4.5446 -66.8300 -0.1034 73.1815 73.0781
3.5000 1.9079 -4.8527 -67.5952 -0.0445 74.4002 74.3557
3.4000 2.0999 -5.1905 -68.2658 0.0201 75.5363 75.5564
3.3000 2.1857 -5.5616 -68.7937 0.0913 76.4498 76.5411
3.2000 2.2073 -5.9697 -69.2024 0.1674 77.2122 77.3796
3.1000 2.1356 -6.4191 -69.5324 0.2481 77.8391 78.0872
3.0000 1.9749 -6.9142 -69.7404 0.3350 78.2946 78.6296
2.9000 1.7352 -7.4597 -69.8201 0.4251 78.5900 79.0150
2.8000 1.3930 -8.0602 -69.8309 0.5214 78.7629 79.2843
2.7000 0.9483 -8.7198 -69.7467 0.6220 78.7930 79.4149
2.6000 0.4268 -9.4408 -69.5914 0.7261 78.7330 79.4591
2.5000 -0.1970 -10.2227 -69.3788 0.8332 78.5715 79.4047
2.4000 -0.9188 -11.0584 -69.1342 0.9430 78.3310 79.2740
2.3000 -1.7044 -11.9295 -68.8136 1.0573 77.9816 79.0388
2.2000 -2.5343 -12.7955 -68.4440 1.1739 77.5315 78.7054
2.1000 -3.3185 -13.5752 -68.0379 1.2933 77.0015 78.2949
2.0000 -3.8978 -14.1096 -67.5982 1.4168 76.3934 77.8102
1.9000 -3.9604 -14.0872 -67.1435 1.5429 75.7277 77.2706
1.8000 -2.8904 -12.8885 -66.6967 1.6711 75.0240 76.6951
1.7000 0.5753 -9.2412 -66.2432 1.8003 74.2594 76.0598
1.6000 9.1768 -0.4194 -65.8066 1.9276 73.4755 75.4031
1.5000 29.0541 19.7464 -65.3822 2.0581 72.6322 74.6903
1.4000 75.1427 66.1695 -64.9729 2.1911 71.7555 73.9466
1.3000 186.3765 177.7820 -64.5858 2.3250 70.8558 73.1808
