# 0-dist(Ang),1-dGtot,2-dGvac,3-dGele,4-dGdis,5-dGcav,6-dGvdw(kT)
13.5000 0.0000 0.0000 0.0000 0.0000 0.0000 0.0000
13.4000 0.0079 0.0000 0.0735 0.0020 -0.0676 -0.0656
13.3000 0.0071 0.0000 0.1576 0.0042 -0.1547 -0.1505
13.2000 0.0086 0.0000 0.2256 0.0075 -0.2245 -0.2170
13.1000 0.0282 0.0000 0.3070 0.0081 -0.2869 -0.2788
13.0000 0.0481 0.0000 0.3955 0.0121 -0.3596 -0.3475
12.9000 0.0613 0.0000 0.4944 0.0148 -0.4480 -0.4331
12.8000 0.0837 0.0014 0.5857 0.0184 -0.5218 -0.5034
12.7000 0.1021 0.0013 0.6658 0.0200 -0.5850 -0.5650
12.6000 0.1390 0.0020 0.7437 0.0190 -0.6257 -0.6067
12.5000 0.1659 0.0093 0.8225 0.0214 -0.6873 -0.6658
12.4000 0.1939 0.0201 0.9316 0.0246 -0.7825 -0.7578
12.3000 0.2256 0.0327 1.0112 0.0300 -0.8484 -0.8184
12.2000 0.2351 0.0483 1.0830 0.0361 -0.9323 -0.8962
12.1000 0.2623 0.0687 1.1523 0.0414 -1.0002 -0.9588
12.0000 0.2603 0.0884 1.2177 0.0481 -1.0939 -1.0458
11.9000 0.2580 0.1141 1.2700 0.0522 -1.1784 -1.1262
11.8000 0.2602 0.1409 1.3362 0.0586 -1.2757 -1.2171
11.7000 0.2298 0.1633 1.3896 0.0659 -1.3891 -1.3232
11.6000 0.2031 0.1948 1.4270 0.0720 -1.4909 -1.4188
11.5000 0.1953 0.2360 1.4449 0.0824 -1.5681 -1.4857
11.4000 0.1673 0.2711 1.4813 0.0879 -1.6730 -1.5851
11.3000 0.1372 0.3060 1.5233 0.0933 -1.7854 -1.6922
11.2000 0.0918 0.3456 1.5517 0.0979 -1.9035 -1.8056
11.1000 0.0318 0.3903 1.5689 0.1024 -2.0298 -1.9275
11.0000 -0.0059 0.4407 1.5889 0.1059 -2.1415 -2.0355
10.9000 -0.0592 0.4939 1.5943 0.1100 -2.2575 -2.1476
10.8000 -0.1059 0.5514 1.6129 0.1109 -2.3813 -2.2704
10.7000 -0.1586 0.6233 1.6011 0.1139 -2.4970 -2.3831
10.6000 -0.1939 0.7050 1.6131 0.1134 -2.6255 -2.5121
10.5000 -0.2204 0.7944 1.6130 0.1114 -2.7394 -2.6279
10.4000 -0.2518 0.8919 1.5886 0.1085 -2.8410 -2.7325
10.3000 -0.2878 0.9983 1.5552 0.1069 -2.9482 -2.8412
10.2000 -0.3018 1.1136 1.5382 0.1047 -3.0583 -2.9536
10.1000 -0.3161 1.2394 1.5280 0.1007 -3.1844 -3.0837
10.0000 -0.3130 1.3760 1.4975 0.0941 -3.2807 -3.1866
9.9000 -0.2949 1.5223 1.4533 0.0869 -3.3576 -3.2707
9.8000 -0.2696 1.6792 1.4211 0.0818 -3.4520 -3.3702
9.7000 -0.2017 1.8462 1.3830 0.0763 -3.5074 -3.4312
9.6000 -0.1352 2.0236 1.3366 0.0744 -3.5700 -3.4957
9.5000 -0.0625 2.2115 1.2509 0.0728 -3.5979 -3.5251
9.4000 0.0371 2.4095 1.1674 0.0740 -3.6140 -3.5400
9.3000 0.1832 2.6180 1.0843 0.0788 -3.5980 -3.5193
9.2000 0.3272 2.8379 0.9731 0.0874 -3.5714 -3.4840
9.1000 0.4773 3.0690 0.8274 0.1011 -3.5204 -3.4193
9.0000 0.6569 3.3116 0.6790 0.1141 -3.4480 -3.3339
8.9000 0.8181 3.5663 0.5143 0.1335 -3.3961 -3.2626
8.8000 0.9431 3.8333 0.3521 0.1554 -3.3980 -3.2426
8.7000 1.0147 4.1128 0.1298 0.1801 -3.4083 -3.2282
8.6000 1.0739 4.4049 -0.0927 0.2040 -3.4425 -3.2385
8.5000 1.0880 4.7099 -0.3381 0.2319 -3.5159 -3.2841
8.4000 1.0829 5.0278 -0.5856 0.2613 -3.6209 -3.3596
8.3000 1.0361 5.3594 -0.8806 0.2875 -3.7304 -3.4429
8.2000 0.9731 5.7040 -1.1646 0.3144 -3.8810 -3.5666
8.1000 0.8815 6.0633 -1.5114 0.3411 -4.0117 -3.6706
8.0000 0.7705 6.4368 -1.8760 0.3605 -4.1510 -3.7905
7.9000 0.6449 6.8247 -2.2641 0.3761 -4.2920 -3.9159
7.8000 0.5041 7.2274 -2.6517 0.3888 -4.4606 -4.0718
7.7000 0.3447 7.6450 -3.0341 0.3990 -4.6655 -4.2665
7.6000 0.1662 8.0780 -3.4711 0.4080 -4.8489 -4.4409
7.5000 -0.0032 8.5265 -3.8972 0.4088 -5.0414 -4.6326
7.4000 -0.1827 8.9909 -4.3700 0.4082 -5.2119 -4.8037
7.3000 -0.3661 9.4712 -4.8493 0.4025 -5.3907 -4.9882
7.2000 -0.5302 9.9680 -5.3217 0.3954 -5.5721 -5.1767
7.1000 -0.7022 10.4815 -5.8164 0.3900 -5.7574 -5.3675
7.0000 -0.8445 11.0122 -6.3250 0.3832 -5.9150 -5.5319
6.9000 -0.9617 11.5601 -6.8314 0.3810 -6.0716 -5.6906
6.8000 -1.0596 12.1255 -7.3408 0.3835 -6.2280 -5.8445
6.7000 -1.0889 12.7088 -7.8663 0.3885 -6.3202 -5.9317
6.6000 -1.0593 13.3100 -8.4018 0.3965 -6.3644 -5.9678
6.5000 -0.9627 13.9292 -8.9449 0.4144 -6.3617 -5.9473
6.4000 -0.7506 14.5671 -9.4832 0.4385 -6.2733 -5.8348
6.3000 -0.4149 15.2237 -10.0465 0.4685 -6.0610 -5.5925
6.2000 0.0414 15.8992 -10.6202 0.5063 -5.7443 -5.2380
6.1000 0.6397 16.5936 -11.2008 0.5540 -5.3076 -4.7536
6.0000 1.3498 17.3072 -11.8071 0.6102 -4.7611 -4.1509
5.9000 2.0423 18.0399 -12.4316 0.6873 -4.2539 -3.5666
5.8000 2.5223 18.7918 -13.0674 0.7876 -3.9903 -3.2027
5.7000 2.7431 19.5629 -13.7631 0.9106 -3.9678 -3.0572
5.6000 2.8467 20.3530 -14.4776 1.0527 -4.0820 -3.0293
5.5000 2.8390 21.1621 -15.2478 1.2140 -4.2899 -3.0759
5.4000 2.7523 21.9897 -16.0986 1.3837 -4.5232 -3.1394
5.3000 2.6183 22.8357 -17.0026 1.5625 -4.7778 -3.2153
5.2000 2.4279 23.6997 -17.9535 1.7514 -5.0703 -3.3188
5.1000 2.2054 24.5810 -18.9552 1.9399 -5.3608 -3.4210
5.0000 1.9395 25.4790 -19.9869 2.1359 -5.6892 -3.5532
4.9000 1.6480 26.3932 -21.0627 2.3352 -6.0182 -3.6830
4.8000 1.3158 27.3225 -22.2052 2.5363 -6.3384 -3.8021
4.7000 0.9408 28.2662 -23.3869 2.7384 -6.6774 -3.9391
4.6000 0.5623 29.2233 -24.5758 2.9426 -7.0283 -4.0858
4.5000 0.1571 30.1931 -25.8106 3.1476 -7.3736 -4.2260
4.4000 -0.2849 31.1750 -27.0699 3.3520 -7.7426 -4.3906
4.3000 -0.7320 32.1689 -28.3568 3.5529 -8.0975 -4.5446
4.2000 -1.1962 33.1756 -29.6423 3.7528 -8.4830 -4.7302
4.1000 -1.6539 34.1972 -30.9600 3.9527 -8.8445 -4.8918
4.0000 -2.1208 35.2380 -32.2921 4.1513 -9.2187 -5.0674
3.9000 -2.5778 36.3059 -33.6005 4.3500 -9.6339 -5.2839
3.8000 -3.0182 37.4143 -34.9197 4.5448 -10.0582 -5.5134
3.7000 -3.4046 38.5848 -36.2073 4.7362 -10.5191 -5.7829
3.6000 -3.7117 39.8524 -37.5079 4.9269 -10.9839 -6.0570
3.5000 -3.8476 41.2714 -38.7735 5.1193 -11.4655 -6.3462
3.4000 -3.7558 42.9274 -40.0042 5.3087 -11.9884 -6.6797
3.3000 -3.2875 44.9524 -41.1945 5.4927 -12.5388 -7.0460
3.2000 -2.2502 47.5518 -42.3392 5.6779 -13.1412 -7.4633
3.1000 -0.3095 51.0440 -43.4729 5.8642 -13.7454 -7.8811
3.0000 3.0332 55.9242 -44.5487 6.0469 -14.3899 -8.3430
2.9000 8.5463 62.9660 -45.6014 6.2283 -15.0472 -8.8188
2.8000 17.4619 73.3838 -46.6038 6.4049 -15.7238 -9.3188
2.7000 31.6993 89.0977 -47.5672 6.5847 -16.4166 -9.8320
2.6000 54.2988 113.1656 -48.4961 6.7599 -17.1314 -10.3715
2.5000 90.1663 150.5004 -49.3685 6.9370 -17.9034 -10.9664
2.4000 147.2958 209.0783 -50.2379 7.1069 -18.6523 -11.5454
2.3000 238.8099 302.0073 -51.0855 7.2780 -19.3905 -12.1126
2.2000 386.5761 451.1549 -51.9264 7.4443 -20.0974 -12.6531
2.1000 627.7510 693.7120 -52.7464 7.6046 -20.8199 -13.2153
2.0000 1027.2477 1094.5520 -53.5264 7.7620 -21.5404 -13.7784
1.9000 1702.0797 1770.6946 -54.3047 7.9139 -22.2243 -14.3104
1.8000 2872.7837 2942.6695 -55.0408 8.0596 -22.9050 -14.8454
1.7000 4978.3256 5049.4473 -55.7878 8.1974 -23.5315 -15.3341
1.6000 8950.4886 9022.8336 -56.5112 8.3296 -24.1629 -15.8333
1.5000 16912.4489 16985.9854 -57.2499 8.4535 -24.7409 -16.2874
1.4000 34077.5154 34152.2478 -57.9877 8.5653 -25.3046 -16.7393
1.3000 74305.8734 74381.7860 -58.7129 8.6672 -25.8600 -17.1928
