# 0-dist(Ang),1-dGtot,2-dGvac,3-dGele,4-dGdis,5-dGcav,6-dGvdw(kT)
13.5000 0.0000 0.0000 0.0000 0.0000 0.0000 0.0000
13.4000 0.0058 0.0000 0.0572 -0.0014 -0.0500 -0.0514
13.3000 0.0011 0.0000 0.1117 -0.0002 -0.1104 -0.1106
13.2000 0.0003 0.0000 0.1550 -0.0010 -0.1537 -0.1547
13.1000 0.0110 0.0000 0.2067 -0.0035 -0.1922 -0.1957
13.0000 0.0256 -0.0000 0.2522 -0.0070 -0.2196 -0.2266
12.9000 0.0449 0.0002 0.3179 -0.0071 -0.2660 -0.2731
12.8000 0.0492 0.0003 0.3775 -0.0064 -0.3223 -0.3287
12.7000 0.0604 0.0007 0.4412 -0.0078 -0.3736 -0.3814
12.6000 0.0680 0.0011 0.4980 -0.0079 -0.4231 -0.4310
12.5000 0.0712 0.0015 0.5636 -0.0070 -0.4869 -0.4939
12.4000 0.0865 0.0017 0.6236 -0.0061 -0.5327 -0.5388
12.3000 0.1041 0.0017 0.6791 -0.0066 -0.5702 -0.5767
12.2000 0.1182 0.0016 0.7493 -0.0058 -0.6269 -0.6327
12.1000 0.1226 0.0012 0.8110 -0.0042 -0.6854 -0.6896
12.0000 0.1222 0.0001 0.8705 -0.0042 -0.7441 -0.7484
11.9000 0.1107 -0.0101 0.9275 -0.0029 -0.8037 -0.8066
11.8000 0.1207 -0.0116 0.9921 0.0002 -0.8600 -0.8598
11.7000 0.1190 -0.0174 1.0491 0.0027 -0.9153 -0.9126
11.6000 0.1090 -0.0213 1.1004 0.0067 -0.9768 -0.9701
11.5000 0.0991 -0.0236 1.1609 0.0089 -1.0471 -1.0383
11.4000 0.0836 -0.0298 1.2233 0.0121 -1.1221 -1.1100
11.3000 0.0745 -0.0293 1.2776 0.0149 -1.1889 -1.1740
11.2000 0.0626 -0.0268 1.3245 0.0184 -1.2537 -1.2353
11.1000 0.0552 -0.0209 1.3751 0.0211 -1.3203 -1.2992
11.0000 0.0397 -0.0163 1.4306 0.0246 -1.3992 -1.3746
10.9000 0.0198 -0.0114 1.4750 0.0294 -1.4733 -1.4439
10.8000 0.0125 -0.0077 1.5385 0.0331 -1.5515 -1.5184
10.7000 0.0033 -0.0047 1.5938 0.0342 -1.6200 -1.5858
10.6000 -0.0101 -0.0025 1.6427 0.0362 -1.6865 -1.6504
10.5000 -0.0318 -0.0021 1.6907 0.0373 -1.7577 -1.7204
10.4000 -0.0389 -0.0021 1.7402 0.0359 -1.8129 -1.7770
10.3000 -0.0592 -0.0026 1.7951 0.0350 -1.8867 -1.8518
10.2000 -0.0609 -0.0033 1.8496 0.0322 -1.9396 -1.9074
10.1000 -0.0674 -0.0034 1.9042 0.0290 -1.9974 -1.9684
10.0000 -0.0731 -0.0028 1.9597 0.0259 -2.0559 -2.0300
9.9000 -0.0656 -0.0013 2.0026 0.0236 -2.0906 -2.0670
9.8000 -0.0495 -0.0001 2.0684 0.0180 -2.1359 -2.1179
9.7000 -0.0225 0.0017 2.1264 0.0133 -2.1640 -2.1506
9.6000 0.0105 0.0035 2.1840 0.0062 -2.1833 -2.1771
9.5000 0.0521 0.0056 2.2496 0.0018 -2.2050 -2.2032
9.4000 0.0937 0.0077 2.3217 -0.0019 -2.2339 -2.2358
9.3000 0.1436 0.0098 2.3908 -0.0022 -2.2549 -2.2571
9.2000 0.2110 0.0115 2.4518 -0.0021 -2.2503 -2.2523
9.1000 0.2791 0.0129 2.5095 0.0020 -2.2453 -2.2433
9.0000 0.3580 0.0144 2.5722 0.0064 -2.2351 -2.2286
8.9000 0.4270 0.0153 2.6332 0.0162 -2.2376 -2.2214
8.8000 0.4970 0.0160 2.6964 0.0283 -2.2436 -2.2153
8.7000 0.5606 0.0163 2.7628 0.0431 -2.2615 -2.2184
8.6000 0.6074 0.0159 2.8265 0.0619 -2.2970 -2.2350
8.5000 0.6428 0.0150 2.8995 0.0836 -2.3553 -2.2717
8.4000 0.6548 0.0136 2.9608 0.1087 -2.4284 -2.3197
8.3000 0.6410 0.0117 3.0242 0.1364 -2.5314 -2.3950
8.2000 0.6070 0.0093 3.0904 0.1649 -2.6577 -2.4928
8.1000 0.5559 0.0062 3.1396 0.1937 -2.7837 -2.5900
8.0000 0.4930 0.0024 3.1971 0.2181 -2.9246 -2.7065
7.9000 0.4143 -0.0021 3.2531 0.2424 -3.0793 -2.8369
7.8000 0.3270 -0.0073 3.3166 0.2649 -3.2474 -2.9824
7.7000 0.2231 -0.0134 3.3944 0.2867 -3.4447 -3.1580
7.6000 0.1163 -0.0203 3.4488 0.3019 -3.6141 -3.3122
7.5000 0.0015 -0.0282 3.5107 0.3138 -3.7949 -3.4811
7.4000 -0.1161 -0.0371 3.5686 0.3243 -3.9719 -3.6476
7.3000 -0.2332 -0.0472 3.6447 0.3277 -4.1585 -3.8308
7.2000 -0.3374 -0.0585 3.7299 0.3271 -4.3359 -4.0088
7.1000 -0.4394 -0.0713 3.8086 0.3246 -4.5013 -4.1767
7.0000 -0.5268 -0.0857 3.8785 0.3197 -4.6393 -4.3197
6.9000 -0.6059 -0.1018 3.9525 0.3152 -4.7718 -4.4566
6.8000 -0.6647 -0.1200 4.0253 0.3105 -4.8804 -4.5699
6.7000 -0.6893 -0.1405 4.1098 0.3077 -4.9661 -4.6584
6.6000 -0.6783 -0.1635 4.1785 0.3070 -5.0001 -4.6931
6.5000 -0.6078 -0.1894 4.2536 0.3108 -4.9826 -4.6719
6.4000 -0.4574 -0.2184 4.3210 0.3181 -4.8779 -4.5598
6.3000 -0.2106 -0.2511 4.3729 0.3312 -4.6633 -4.3321
6.2000 0.1377 -0.2878 4.4062 0.3508 -4.3312 -3.9805
6.1000 0.5903 -0.3290 4.4256 0.3829 -3.8889 -3.5060
6.0000 1.1168 -0.3753 4.4341 0.4344 -3.3759 -2.9415
5.9000 1.6758 -0.4274 4.4478 0.5095 -2.8538 -2.3443
5.8000 2.1509 -0.4859 4.4683 0.6187 -2.4499 -1.8312
5.7000 2.4580 -0.5516 4.5003 0.7588 -2.2492 -1.4904
5.6000 2.6377 -0.6254 4.5407 0.9235 -2.2008 -1.2773
5.5000 2.7266 -0.7083 4.5984 1.1079 -2.2710 -1.1631
5.4000 2.7598 -0.8014 4.6597 1.3081 -2.4064 -1.0983
5.3000 2.7455 -0.9058 4.7402 1.5221 -2.6106 -1.0886
5.2000 2.7004 -1.0229 4.8346 1.7450 -2.8560 -1.1109
5.1000 2.6241 -1.1541 4.9139 1.9794 -3.1147 -1.1353
5.0000 2.5063 -1.3010 5.0004 2.2242 -3.4169 -1.1927
4.9000 2.3592 -1.4652 5.0876 2.4780 -3.7409 -1.2629
4.8000 2.1810 -1.6483 5.1735 2.7379 -4.0816 -1.3437
4.7000 1.9714 -1.8520 5.2726 3.0070 -4.4559 -1.4488
4.6000 1.7169 -2.0778 5.3980 3.2829 -4.8858 -1.6029
4.5000 1.4383 -2.3269 5.5624 3.5665 -5.3635 -1.7970
4.4000 1.1298 -2.6000 5.7501 3.8522 -5.8723 -2.0201
4.3000 0.7685 -2.8968 5.9445 4.1450 -6.4239 -2.2789
4.2000 0.3711 -3.2156 6.1834 4.4426 -7.0390 -2.5964
4.1000 -0.0669 -3.5523 6.4518 4.7445 -7.7105 -2.9661
4.0000 -0.5305 -3.8990 6.7399 5.0494 -8.4205 -3.3711
3.9000 -1.0156 -4.2424 7.0709 5.3569 -9.2006 -3.8437
3.8000 -1.4937 -4.5608 7.4146 5.6656 -10.0128 -4.3471
3.7000 -1.9459 -4.8197 7.7959 5.9748 -10.8965 -4.9218
3.6000 -2.3205 -4.9650 8.1825 6.2865 -11.8240 -5.5374
3.5000 -2.5294 -4.9139 8.5952 6.5985 -12.8088 -6.2103
3.4000 -2.4320 -4.5388 9.0273 6.9073 -13.8275 -6.9202
3.3000 -1.8444 -3.6443 9.4587 7.2162 -14.8745 -7.6583
3.2000 -0.4602 -1.9307 9.9190 7.5240 -15.9719 -8.4479
3.1000 2.1873 1.0637 10.3906 7.8298 -17.0964 -9.2666
3.0000 6.7957 6.0543 10.8714 8.1321 -18.2617 -10.1296
2.9000 14.5020 14.1583 11.3574 8.4327 -19.4460 -11.0133
2.8000 27.0498 27.1376 11.8457 8.7291 -20.6622 -11.9331
2.7000 47.2643 47.8035 12.3520 9.0210 -21.9119 -12.8909
2.6000 79.6790 80.7045 12.8590 9.3089 -23.1931 -13.8841
2.5000 131.7872 133.3189 13.3763 9.5885 -24.4961 -14.9076
2.4000 216.1123 218.1723 13.9075 9.8643 -25.8314 -15.9671
2.3000 354.0952 356.7018 14.4556 10.1319 -27.1937 -17.0618
2.2000 583.3119 586.5013 15.0172 10.3934 -28.5997 -18.2064
2.1000 971.6111 975.4097 15.5613 10.6450 -30.0046 -19.3596
2.0000 1645.4377 1649.8635 16.1339 10.8860 -31.4453 -20.5593
1.9000 2849.2941 2854.3819 16.7105 11.1167 -32.9152 -21.7984
1.8000 5076.3360 5082.1088 17.2978 11.3361 -34.4072 -23.0711
1.7000 9369.1025 9375.5923 17.8817 11.5431 -35.9135 -24.3704
1.6000 18050.9289 18058.1572 18.4797 11.7364 -37.4515 -25.7150
1.5000 36611.2072 36619.2265 19.0874 11.9165 -39.0242 -27.1077
1.4000 78887.3149 78896.0907 19.7141 12.0823 -40.6182 -28.5360
1.3000 182355.3118 182364.8789 20.3340 12.2311 -42.2202 -29.9892
