# 0-dist(Ang),1-dGtot,2-dGvac,3-dGele,4-dGdis,5-dGcav,6-dGvdw(kT)
13.5000 0.0000 0.0000 0.0000 0.0000 0.0000 0.0000
13.4000 0.0200 0.0000 -0.0188 0.0006 0.0382 0.0388
13.3000 0.0346 0.0000 -0.0083 -0.0018 0.0448 0.0429
13.2000 0.0409 0.0000 -0.0261 -0.0011 0.0682 0.0670
13.1000 0.0519 0.0000 -0.0482 0.0012 0.0989 0.1001
13.0000 0.0877 0.0000 -0.0468 0.0013 0.1332 0.1345
12.9000 0.0964 0.0000 -0.0650 0.0015 0.1600 0.1614
12.8000 0.1405 0.0001 -0.0919 0.0041 0.2282 0.2323
12.7000 0.1613 0.0001 -0.0715 0.0039 0.2289 0.2328
12.6000 0.1971 0.0002 -0.0926 0.0050 0.2845 0.2895
12.5000 0.2263 0.0003 -0.1275 0.0096 0.3440 0.3536
12.4000 0.2489 0.0004 -0.1467 0.0112 0.3841 0.3953
12.3000 0.2623 0.0005 -0.1489 0.0141 0.3967 0.4108
12.2000 0.2676 0.0006 -0.1546 0.0180 0.4038 0.4217
12.1000 0.2717 0.0007 -0.1509 0.0205 0.4016 0.4220
12.0000 0.2779 0.0001 -0.1211 0.0212 0.3779 0.3991
11.9000 0.2937 -0.0033 -0.1186 0.0237 0.3921 0.4158
11.8000 0.2797 -0.0041 -0.1192 0.0277 0.3754 0.4031
11.7000 0.2580 -0.0036 -0.1203 0.0323 0.3499 0.3822
11.6000 0.2428 -0.0043 -0.0984 0.0343 0.3115 0.3457
11.5000 0.2282 -0.0035 -0.0787 0.0393 0.2713 0.3106
11.4000 0.1942 -0.0041 -0.0818 0.0450 0.2353 0.2802
11.3000 0.1704 -0.0033 -0.1134 0.0502 0.2370 0.2872
11.2000 0.1297 -0.0028 -0.1302 0.0558 0.2071 0.2629
11.1000 0.0810 -0.0022 -0.1455 0.0623 0.1665 0.2289
11.0000 0.0425 -0.0031 -0.1691 0.0669 0.1479 0.2148
10.9000 -0.0050 -0.0035 -0.1971 0.0705 0.1252 0.1957
10.8000 -0.0634 -0.0035 -0.2305 0.0749 0.0959 0.1708
10.7000 -0.0986 -0.0035 -0.2350 0.0771 0.0630 0.1401
10.6000 -0.1291 -0.0033 -0.2626 0.0778 0.0593 0.1371
10.5000 -0.1702 -0.0032 -0.2940 0.0794 0.0479 0.1273
10.4000 -0.1976 -0.0034 -0.3511 0.0805 0.0766 0.1571
10.3000 -0.2357 -0.0036 -0.3831 0.0789 0.0722 0.1511
10.2000 -0.2664 -0.0038 -0.4080 0.0786 0.0670 0.1456
10.1000 -0.2860 -0.0043 -0.4436 0.0760 0.0860 0.1621
10.0000 -0.2778 -0.0049 -0.4384 0.0686 0.0970 0.1656
9.9000 -0.2899 -0.0060 -0.4244 0.0633 0.0773 0.1406
9.8000 -0.2887 -0.0067 -0.4223 0.0559 0.0845 0.1405
9.7000 -0.2641 -0.0077 -0.4165 0.0477 0.1126 0.1603
9.6000 -0.2472 -0.0087 -0.4056 0.0405 0.1268 0.1673
9.5000 -0.1989 -0.0100 -0.3825 0.0338 0.1601 0.1939
9.4000 -0.1257 -0.0114 -0.3425 0.0282 0.2001 0.2283
9.3000 -0.0192 -0.0129 -0.3119 0.0252 0.2806 0.3057
9.2000 0.0977 -0.0146 -0.2734 0.0256 0.3601 0.3857
9.1000 0.2618 -0.0164 -0.2400 0.0279 0.4903 0.5182
9.0000 0.4301 -0.0183 -0.1938 0.0350 0.6072 0.6422
8.9000 0.6058 -0.0205 -0.1644 0.0466 0.7443 0.7908
8.8000 0.7747 -0.0228 -0.1365 0.0599 0.8743 0.9342
8.7000 0.9350 -0.0254 -0.0908 0.0771 0.9743 1.0513
8.6000 1.0263 -0.0283 -0.0979 0.0999 1.0526 1.1526
8.5000 1.1009 -0.0314 -0.0681 0.1231 1.0776 1.2007
8.4000 1.1402 -0.0349 -0.0552 0.1494 1.0811 1.2305
8.3000 1.1439 -0.0387 -0.0615 0.1780 1.0664 1.2444
8.2000 1.1081 -0.0429 -0.0879 0.2085 1.0307 1.2392
8.1000 1.0428 -0.0476 -0.0874 0.2374 0.9408 1.1782
8.0000 0.9521 -0.0527 -0.1113 0.2671 0.8494 1.1165
7.9000 0.8362 -0.0584 -0.1295 0.2924 0.7320 1.0244
7.8000 0.7029 -0.0647 -0.1256 0.3165 0.5771 0.8936
7.7000 0.5660 -0.0717 -0.1333 0.3355 0.4357 0.7713
7.6000 0.3949 -0.0793 -0.1545 0.3564 0.2725 0.6289
7.5000 0.2379 -0.0878 -0.1736 0.3688 0.1307 0.4995
7.4000 0.0820 -0.0971 -0.1992 0.3782 0.0003 0.3785
7.3000 -0.1021 -0.1074 -0.2010 0.3842 -0.1776 0.2066
7.2000 -0.2788 -0.1189 -0.1908 0.3870 -0.3558 0.0312
7.1000 -0.4555 -0.1315 -0.1656 0.3852 -0.5433 -0.1581
7.0000 -0.6315 -0.1455 -0.1844 0.3871 -0.6882 -0.3011
6.9000 -0.7774 -0.1611 -0.1611 0.3850 -0.8397 -0.4547
6.8000 -0.8944 -0.1783 -0.1665 0.3864 -0.9355 -0.5491
6.7000 -0.9893 -0.1975 -0.1553 0.3924 -1.0284 -0.6360
6.6000 -1.0312 -0.2187 -0.1405 0.4049 -1.0764 -0.6715
6.5000 -1.0202 -0.2423 -0.1600 0.4220 -1.0394 -0.6174
6.4000 -0.9319 -0.2686 -0.1665 0.4442 -0.9403 -0.4962
6.3000 -0.7264 -0.2979 -0.1907 0.4751 -0.7124 -0.2373
6.2000 -0.3817 -0.3305 -0.2331 0.5138 -0.3314 0.1824
6.1000 0.1125 -0.3668 -0.2618 0.5618 0.1798 0.7417
6.0000 0.7936 -0.4073 -0.3315 0.6231 0.9097 1.5329
5.9000 1.6590 -0.4526 -0.4055 0.6923 1.8254 2.5177
5.8000 2.5961 -0.5031 -0.4657 0.7780 2.7874 3.5655
5.7000 3.3530 -0.5595 -0.3755 0.8890 3.3996 4.2886
5.6000 3.7824 -0.6226 -0.1547 1.0219 3.5383 4.5602
5.5000 3.9465 -0.6932 0.1669 1.1716 3.3016 4.4732
5.4000 4.0546 -0.7721 0.5167 1.3323 2.9784 4.3106
5.3000 4.1125 -0.8605 0.8761 1.5087 2.5888 4.0975
5.2000 4.1324 -0.9593 1.2395 1.6958 2.1569 3.8527
5.1000 4.1145 -1.0699 1.6211 1.8911 1.6726 3.5637
5.0000 4.0788 -1.1936 2.0190 2.0951 1.1587 3.2538
4.9000 3.9864 -1.3317 2.4105 2.3115 0.5966 2.9081
4.8000 3.8650 -1.4859 2.8283 2.5377 -0.0147 2.5230
4.7000 3.6978 -1.6575 3.2599 2.7735 -0.6777 2.0958
4.6000 3.4772 -1.8480 3.7053 3.0168 -1.3966 1.6203
4.5000 3.2078 -2.0588 4.1613 3.2661 -2.1604 1.1057
4.4000 2.8950 -2.2906 4.6153 3.5194 -2.9488 0.5706
4.3000 2.5198 -2.5438 5.0952 3.7774 -3.8086 -0.0312
4.2000 2.0980 -2.8174 5.5784 4.0388 -4.7014 -0.6627
4.1000 1.6100 -3.1086 6.0635 4.3052 -5.6496 -1.3445
4.0000 1.0945 -3.4119 6.5526 4.5740 -6.6198 -2.0458
3.9000 0.5268 -3.7170 7.0558 4.8446 -7.6559 -2.8113
3.8000 -0.0516 -4.0071 7.5526 5.1167 -8.7132 -3.5965
3.7000 -0.6207 -4.2544 8.0527 5.3924 -9.8107 -4.4183
3.6000 -1.1148 -4.4153 8.5506 5.6666 -10.9161 -5.2495
3.5000 -1.5003 -4.4213 9.0547 5.9388 -12.0721 -6.1333
3.4000 -1.6499 -4.1657 9.5498 6.2128 -13.2462 -7.0334
3.3000 -1.3950 -3.4832 10.0460 6.4838 -14.4410 -7.9571
3.2000 -0.4774 -2.1175 10.5472 6.7530 -15.6594 -8.9063
3.1000 1.4877 0.3309 11.0467 7.0187 -16.9078 -9.8891
3.0000 5.1516 4.4867 11.5438 7.2790 -18.1572 -10.8783
2.9000 11.4946 11.3345 12.0468 7.5360 -19.4220 -11.8861
2.8000 22.0699 22.4393 12.5491 7.7881 -20.7060 -12.9179
2.7000 39.3811 40.3149 13.0354 8.0358 -22.0043 -13.9686
2.6000 67.5194 69.0471 13.5293 8.2762 -23.3325 -15.0563
2.5000 113.2240 115.3673 14.0207 8.5118 -24.6750 -16.1632
2.4000 187.7556 190.5329 14.5175 8.7377 -26.0316 -17.2938
2.3000 310.2530 313.6896 15.0016 8.9560 -27.3934 -18.4373
2.2000 513.8809 517.9966 15.4890 9.1644 -28.7682 -19.6039
2.1000 857.2354 862.0720 15.9780 9.3637 -30.1774 -20.8137
2.0000 1446.2965 1451.8628 16.4818 9.5505 -31.5975 -22.0470
1.9000 2477.2765 2483.6118 16.9749 9.7261 -33.0351 -23.3090
1.8000 4323.5691 4330.7225 17.4594 9.8878 -34.4992 -24.6114
1.7000 7717.0547 7725.0539 17.9576 10.0350 -35.9893 -25.9543
1.6000 14139.7502 14148.6453 18.4548 10.1676 -37.5147 -27.3471
1.5000 26702.6211 26712.4353 18.9419 10.2843 -39.0357 -28.7514
1.4000 52200.7504 52211.5258 19.4229 10.3859 -40.5739 -30.1880
1.3000 106140.9756 106152.7523 19.9001 10.4673 -42.1337 -31.6665
