# 0-dist(Ang),1-dGtot,2-dGvac,3-dGele,4-dGdis,5-dGcav,6-dGvdw(kT)
13.5000 0.0000 0.0000 0.0000 0.0000 0.0000 0.0000
13.4000 0.0096 0.0000 0.0068 -0.0061 0.0089 0.0028
13.3000 0.0094 0.0000 0.0284 -0.0099 -0.0090 -0.0189
13.2000 0.0168 0.0000 0.0531 -0.0097 -0.0265 -0.0363
13.1000 0.0312 0.0001 0.0586 -0.0137 -0.0137 -0.0275
13.0000 0.0476 -0.0000 0.0652 -0.0168 -0.0007 -0.0175
12.9000 0.0642 -0.0001 0.0680 -0.0194 0.0157 -0.0037
12.8000 0.0731 -0.0002 0.0700 -0.0229 0.0262 0.0033
12.7000 0.0959 -0.0001 0.0859 -0.0268 0.0368 0.0100
12.6000 0.1250 -0.0002 0.0852 -0.0311 0.0711 0.0400
12.5000 0.1373 -0.0005 0.0859 -0.0323 0.0842 0.0519
12.4000 0.1565 -0.0009 0.0942 -0.0347 0.0979 0.0632
12.3000 0.1575 -0.0014 0.1031 -0.0342 0.0899 0.0557
12.2000 0.1647 -0.0017 0.1028 -0.0331 0.0966 0.0635
12.1000 0.1628 -0.0028 0.1107 -0.0326 0.0874 0.0548
12.0000 0.1610 -0.0060 0.1122 -0.0334 0.0882 0.0548
11.9000 0.1560 -0.0115 0.1251 -0.0319 0.0742 0.0423
11.8000 0.1519 -0.0129 0.1380 -0.0317 0.0585 0.0268
11.7000 0.1219 -0.0204 0.1448 -0.0322 0.0297 -0.0024
11.6000 0.1038 -0.0270 0.1534 -0.0312 0.0086 -0.0226
11.5000 0.0645 -0.0353 0.1731 -0.0265 -0.0468 -0.0733
11.4000 0.0423 -0.0450 0.1898 -0.0246 -0.0778 -0.1024
11.3000 0.0030 -0.0464 0.2004 -0.0209 -0.1302 -0.1510
11.2000 -0.0234 -0.0418 0.2009 -0.0186 -0.1639 -0.1825
11.1000 -0.0433 -0.0357 0.2004 -0.0169 -0.1911 -0.2079
11.0000 -0.0580 -0.0306 0.2132 -0.0172 -0.2234 -0.2406
10.9000 -0.0813 -0.0264 0.2154 -0.0157 -0.2547 -0.2704
10.8000 -0.1025 -0.0220 0.2262 -0.0137 -0.2931 -0.3067
10.7000 -0.1183 -0.0171 0.2329 -0.0126 -0.3215 -0.3341
10.6000 -0.1431 -0.0123 0.2309 -0.0127 -0.3491 -0.3618
10.5000 -0.1504 -0.0091 0.2302 -0.0137 -0.3580 -0.3717
10.4000 -0.1597 -0.0066 0.2294 -0.0166 -0.3661 -0.3826
10.3000 -0.1627 -0.0055 0.2302 -0.0192 -0.3683 -0.3875
10.2000 -0.1522 -0.0058 0.2385 -0.0237 -0.3613 -0.3850
10.1000 -0.1451 -0.0066 0.2412 -0.0321 -0.3476 -0.3798
10.0000 -0.1262 -0.0078 0.2580 -0.0387 -0.3378 -0.3765
9.9000 -0.0943 -0.0096 0.2680 -0.0486 -0.3044 -0.3529
9.8000 -0.0517 -0.0117 0.2826 -0.0605 -0.2623 -0.3228
9.7000 -0.0122 -0.0143 0.3064 -0.0677 -0.2367 -0.3044
9.6000 0.0444 -0.0174 0.3218 -0.0766 -0.1836 -0.2602
9.5000 0.1212 -0.0208 0.3420 -0.0834 -0.1168 -0.2002
9.4000 0.2076 -0.0243 0.3689 -0.0896 -0.0475 -0.1371
9.3000 0.2974 -0.0281 0.3921 -0.0926 0.0259 -0.0667
9.2000 0.3985 -0.0320 0.4066 -0.0953 0.1190 0.0238
9.1000 0.5146 -0.0364 0.4168 -0.0950 0.2290 0.1340
9.0000 0.6300 -0.0411 0.4364 -0.0906 0.3251 0.2346
8.9000 0.7260 -0.0463 0.4560 -0.0793 0.3956 0.3163
8.8000 0.8079 -0.0521 0.4800 -0.0633 0.4432 0.3799
8.7000 0.8838 -0.0586 0.5039 -0.0417 0.4800 0.4384
8.6000 0.9241 -0.0657 0.5291 -0.0169 0.4776 0.4607
8.5000 0.9386 -0.0737 0.5593 0.0119 0.4410 0.4529
8.4000 0.9171 -0.0824 0.5893 0.0451 0.3651 0.4102
8.3000 0.8767 -0.0920 0.6301 0.0809 0.2576 0.3385
8.2000 0.8056 -0.1025 0.6808 0.1170 0.1103 0.2272
8.1000 0.7062 -0.1141 0.7323 0.1529 -0.0650 0.0879
8.0000 0.5995 -0.1268 0.7835 0.1855 -0.2429 -0.0574
7.9000 0.4690 -0.1407 0.8523 0.2169 -0.4597 -0.2428
7.8000 0.3302 -0.1559 0.9128 0.2435 -0.6702 -0.4267
7.7000 0.1892 -0.1726 0.9803 0.2664 -0.8849 -0.6186
7.6000 0.0299 -0.1909 1.0391 0.2868 -1.1052 -0.8184
7.5000 -0.1385 -0.2110 1.1165 0.3020 -1.3462 -1.0442
7.4000 -0.2999 -0.2331 1.1979 0.3100 -1.5750 -1.2650
7.3000 -0.4816 -0.2574 1.2708 0.3156 -1.8108 -1.4953
7.2000 -0.6392 -0.2842 1.3389 0.3145 -2.0088 -1.6942
7.1000 -0.7843 -0.3136 1.4139 0.3106 -2.1955 -1.8849
7.0000 -0.9109 -0.3461 1.4825 0.3020 -2.3495 -2.0475
6.9000 -1.0055 -0.3820 1.5428 0.2962 -2.4629 -2.1666
6.8000 -1.0423 -0.4217 1.5957 0.2898 -2.5064 -2.2166
6.7000 -1.0302 -0.4655 1.6308 0.2858 -2.4816 -2.1958
6.6000 -0.9534 -0.5140 1.6543 0.2888 -2.3828 -2.0940
6.5000 -0.7739 -0.5678 1.6646 0.2964 -2.1675 -1.8711
6.4000 -0.4763 -0.6273 1.6504 0.3142 -1.8140 -1.4997
6.3000 -0.0200 -0.6934 1.6060 0.3401 -1.2728 -0.9328
6.2000 0.5861 -0.7668 1.5539 0.3819 -0.5832 -0.2013
6.1000 1.3851 -0.8483 1.4847 0.4372 0.3113 0.7485
6.0000 2.3388 -0.9390 1.4156 0.5212 1.3407 1.8619
5.9000 3.2812 -1.0398 1.3794 0.6564 2.2851 2.9415
5.8000 3.9181 -1.1521 1.4377 0.8587 2.7735 3.6322
5.7000 4.2846 -1.2771 1.5882 1.1118 2.8615 3.9733
5.6000 4.4656 -1.4165 1.8087 1.3991 2.6739 4.0731
5.5000 4.5695 -1.5718 2.0799 1.7062 2.3550 4.0612
5.4000 4.6219 -1.7450 2.3930 2.0300 1.9435 3.9735
5.3000 4.6079 -1.9380 2.7640 2.3678 1.4138 3.7816
5.2000 4.5346 -2.1531 3.1717 2.7215 0.7941 3.5156
5.1000 4.4210 -2.3928 3.6080 3.0870 0.1183 3.2053
5.0000 4.2512 -2.6596 4.0725 3.4661 -0.6283 2.8378
4.9000 4.0294 -2.9560 4.5647 3.8563 -1.4359 2.4204
4.8000 3.7652 -3.2849 5.0882 4.2562 -2.2947 1.9615
4.7000 3.4470 -3.6486 5.6420 4.6645 -3.2112 1.4532
4.6000 3.0746 -4.0493 6.2183 5.0849 -4.1795 0.9054
4.5000 2.6397 -4.4885 6.8135 5.5115 -5.1971 0.3144
4.4000 2.1380 -4.9661 7.4415 5.9448 -6.2824 -0.3376
4.3000 1.5509 -5.4802 8.0908 6.3902 -7.4502 -1.0599
4.2000 0.9227 -6.0252 8.7553 6.8388 -8.6464 -1.8076
4.1000 0.2240 -6.5903 9.4405 7.2961 -9.9223 -2.6262
4.0000 -0.5252 -7.1565 10.1340 7.7570 -11.2596 -3.5026
3.9000 -1.2909 -7.6923 10.8298 8.2229 -12.6511 -4.4283
3.8000 -2.0184 -8.1468 11.5415 8.6930 -14.1059 -5.4129
3.7000 -2.6128 -8.4400 12.2461 9.1631 -15.5817 -6.4186
3.6000 -2.9703 -8.4471 12.9579 9.6355 -17.1163 -7.4808
3.5000 -2.9020 -7.9747 13.6681 10.1076 -18.7026 -8.5950
3.4000 -2.0933 -6.7234 14.3664 10.5802 -20.3162 -9.7360
3.3000 -0.0756 -4.2282 15.0614 11.0507 -21.9593 -10.9085
3.2000 3.8721 0.2355 15.7482 11.5195 -23.6307 -12.1113
3.1000 10.9017 7.8065 16.4327 11.9851 -25.3225 -13.3374
3.0000 22.8005 20.2919 17.1045 12.4470 -27.0428 -14.5958
2.9000 42.4852 40.5942 17.7737 12.9040 -28.7865 -15.8825
2.8000 74.6804 73.4446 18.4437 13.3559 -30.5637 -17.2077
2.7000 127.2423 126.6858 19.1129 13.8028 -32.3591 -18.5564
2.6000 213.4073 213.5702 19.7713 14.2442 -34.1784 -19.9342
2.5000 356.0615 356.9636 20.4452 14.6783 -36.0255 -21.3472
2.4000 595.5120 597.2007 21.1213 15.1045 -37.9143 -22.8097
2.3000 1004.5037 1007.0156 21.7734 15.5221 -39.8072 -24.2850
2.2000 1716.9073 1720.2823 22.4269 15.9299 -41.7311 -25.8012
2.1000 2983.2972 2987.5596 23.0844 16.3262 -43.6718 -27.3456
2.0000 5277.7191 5282.9100 23.7487 16.7075 -45.6445 -28.9370
1.9000 9500.4996 9506.6595 24.4166 17.0746 -47.6462 -30.5715
1.8000 17358.4530 17365.6182 25.0887 17.4258 -49.6773 -32.2515
1.7000 32091.7305 32099.9528 25.7614 17.7591 -51.7254 -33.9663
1.6000 59996.5287 60005.8592 26.4350 18.0743 -53.8096 -35.7353
1.5000 114177.0780 114187.5846 27.1148 18.3669 -55.9276 -37.5607
1.4000 225125.3975 225137.1531 27.8012 18.6362 -58.0804 -39.4442
1.3000 472141.7703 472154.8866 28.4810 18.8806 -60.2750 -41.3944
