# 0-dist(Ang),1-dGtot,2-dGvac,3-dGele,4-dGdis,5-dGcav,6-dGvdw(kT)
13.5000 0.0000 0.0000 0.0000 0.0000 0.0000 0.0000
13.4000 0.0144 0.0000 -0.5765 -0.0379 0.6288 0.5909
13.3000 0.0144 0.0000 -1.1613 -0.0736 1.2492 1.1757
13.2000 0.0277 0.0000 -1.7495 -0.1093 1.8865 1.7772
13.1000 0.0343 0.0000 -2.3310 -0.1432 2.5085 2.3653
13.0000 0.0518 0.0000 -2.9089 -0.1800 3.1408 2.9607
12.9000 0.0471 0.0000 -3.4773 -0.2154 3.7397 3.5243
12.8000 0.0623 0.0000 -4.0727 -0.2499 4.3848 4.1349
12.7000 0.0715 0.0000 -4.6633 -0.2842 5.0189 4.7347
12.6000 0.0682 0.0000 -5.2504 -0.3189 5.6373 5.3184
12.5000 0.0780 0.0000 -5.8370 -0.3536 6.2684 5.9149
12.4000 0.0852 0.0000 -6.4366 -0.3890 6.9107 6.5218
12.3000 0.0826 0.0000 -7.0355 -0.4214 7.5394 7.1180
12.2000 0.0989 0.0000 -7.6255 -0.4550 8.1792 7.7242
12.1000 0.1220 0.0000 -8.2029 -0.4913 8.8160 8.3247
12.0000 0.1338 0.0000 -8.8007 -0.5247 9.4592 8.9345
11.9000 0.1491 -0.0024 -9.3994 -0.5610 10.1118 9.5508
11.8000 0.1803 -0.0066 -9.9767 -0.5953 10.7588 10.1635
11.7000 0.1890 -0.0125 -10.5467 -0.6288 11.3770 10.7482
11.6000 0.1918 -0.0192 -11.1212 -0.6633 11.9956 11.3323
11.5000 0.1967 -0.0270 -11.6897 -0.6992 12.6127 11.9134
11.4000 0.2154 -0.0359 -12.2619 -0.7334 13.2466 12.5132
11.3000 0.2046 -0.0460 -12.8369 -0.7693 13.8567 13.0875
11.2000 0.2061 -0.0568 -13.4023 -0.8053 14.4705 13.6652
11.1000 0.2067 -0.0688 -13.9710 -0.8428 15.0892 14.2465
11.0000 0.1947 -0.0826 -14.5380 -0.8776 15.6928 14.8152
10.9000 0.1868 -0.0948 -15.1016 -0.9118 16.2950 15.3832
10.8000 0.1909 -0.1062 -15.6838 -0.9465 16.9274 15.9809
10.7000 0.1985 -0.1160 -16.2666 -0.9854 17.5664 16.5810
10.6000 0.1993 -0.1258 -16.8535 -1.0207 18.1991 17.1784
10.5000 0.2021 -0.1355 -17.4347 -1.0556 18.8278 17.7722
10.4000 0.2002 -0.1452 -18.0199 -1.0917 19.4569 18.3653
10.3000 0.2209 -0.1565 -18.5972 -1.1276 20.1019 18.9743
10.2000 0.2321 -0.1690 -19.1814 -1.1610 20.7434 19.5824
10.1000 0.2426 -0.1818 -19.7758 -1.1964 21.3963 20.1999
10.0000 0.2584 -0.1931 -20.3535 -1.2297 22.0343 20.8046
9.9000 0.2645 -0.2037 -20.9417 -1.2661 22.6758 21.4098
9.8000 0.2812 -0.2134 -21.5297 -1.3017 23.3258 22.0240
9.7000 0.3128 -0.2251 -22.1183 -1.3375 23.9936 22.6560
9.6000 0.3409 -0.2356 -22.7079 -1.3721 24.6563 23.2842
9.5000 0.3641 -0.2454 -23.2832 -1.4061 25.2987 23.8926
9.4000 0.3825 -0.2543 -23.8634 -1.4395 25.9397 24.5002
9.3000 0.4105 -0.2622 -24.4219 -1.4743 26.5688 25.0945
9.2000 0.4358 -0.2689 -24.9863 -1.5077 27.1987 25.6911
9.1000 0.4437 -0.2738 -25.5650 -1.5430 27.8255 26.2825
9.0000 0.4658 -0.2777 -26.1354 -1.5775 28.4564 26.8789
8.9000 0.4628 -0.2827 -26.7095 -1.6093 29.0641 27.4548
8.8000 0.4673 -0.2865 -27.2830 -1.6436 29.6803 28.0367
8.7000 0.4703 -0.2873 -27.8503 -1.6769 30.2846 28.6077
8.6000 0.4499 -0.2907 -28.4375 -1.7094 30.8874 29.1780
8.5000 0.4472 -0.2943 -29.0054 -1.7411 31.4880 29.7469
8.4000 0.4330 -0.2991 -29.6063 -1.7733 32.1117 30.3384
8.3000 0.4302 -0.3050 -30.1945 -1.8052 32.7349 30.9297
8.2000 0.4219 -0.3115 -30.7655 -1.8385 33.3375 31.4989
8.1000 0.4022 -0.3214 -31.3577 -1.8739 33.9551 32.0813
8.0000 0.4103 -0.3296 -31.9309 -1.9077 34.5787 32.6709
7.9000 0.4042 -0.3383 -32.5012 -1.9421 35.1859 33.2438
7.8000 0.4067 -0.3488 -33.0715 -1.9780 35.8050 33.8270
7.7000 0.3949 -0.3615 -33.6355 -2.0145 36.4064 34.3918
7.6000 0.3773 -0.3727 -34.1916 -2.0480 36.9897 34.9416
7.5000 0.3667 -0.3824 -34.7423 -2.0834 37.5747 35.4913
7.4000 0.3418 -0.3889 -35.2856 -2.1211 38.1377 36.0166
7.3000 0.3011 -0.3958 -35.8277 -2.1600 38.6848 36.5249
7.2000 0.2837 -0.4016 -36.3639 -2.1978 39.2471 37.0493
7.1000 0.2487 -0.4075 -36.9116 -2.2360 39.8040 37.5680
7.0000 0.2269 -0.4151 -37.4651 -2.2747 40.3819 38.1073
6.9000 0.2048 -0.4252 -38.0355 -2.3114 40.9771 38.6657
6.8000 0.2019 -0.4380 -38.5966 -2.3493 41.5861 39.2368
6.7000 0.2195 -0.4491 -39.1656 -2.3864 42.2210 39.8346
6.6000 0.2454 -0.4627 -39.7443 -2.4227 42.8754 40.4528
6.5000 0.2858 -0.4801 -40.3326 -2.4583 43.5571 41.0988
6.4000 0.3608 -0.5022 -40.9331 -2.4901 44.2866 41.7964
6.3000 0.4647 -0.5267 -41.5418 -2.5204 45.0540 42.5335
6.2000 0.5685 -0.5540 -42.1730 -2.5499 45.8456 43.2958
6.1000 0.6845 -0.5830 -42.8106 -2.5747 46.6532 44.0785
6.0000 0.7999 -0.6134 -43.4474 -2.5972 47.4583 44.8611
5.9000 0.9323 -0.6463 -44.0911 -2.6186 48.2887 45.6701
5.8000 1.0425 -0.6816 -44.7355 -2.6368 49.0968 46.4600
5.7000 1.1684 -0.7202 -45.3739 -2.6547 49.9176 47.2630
5.6000 1.2557 -0.7625 -46.0051 -2.6715 50.6952 48.0237
5.5000 1.3414 -0.8067 -46.6098 -2.6868 51.4451 48.7583
5.4000 1.4198 -0.8525 -47.2032 -2.6994 52.1754 49.4759
5.3000 1.4342 -0.9023 -47.7619 -2.7137 52.8124 50.0986
5.2000 1.4222 -0.9575 -48.2867 -2.7295 53.3964 50.6668
5.1000 1.3402 -1.0187 -48.7924 -2.7464 53.8981 51.1517
5.0000 1.1908 -1.0861 -49.2928 -2.7640 54.3341 51.5701
4.9000 0.9884 -1.1604 -49.8092 -2.7852 54.7436 51.9583
4.8000 0.7264 -1.2423 -50.3450 -2.8072 55.1214 52.3142
4.7000 0.4386 -1.3340 -50.9182 -2.8265 55.5177 52.6912
4.6000 0.1990 -1.4350 -51.5135 -2.8472 55.9951 53.1480
4.5000 0.0147 -1.5459 -52.1321 -2.8688 56.5620 53.6932
4.4000 -0.1229 -1.6676 -52.7597 -2.8871 57.1920 54.3048
4.3000 -0.2284 -1.7973 -53.3430 -2.9061 57.8184 54.9123
4.2000 -0.3073 -1.9364 -53.8921 -2.9233 58.4448 55.5215
4.1000 -0.3564 -2.0863 -54.3820 -2.9388 59.0510 56.1121
4.0000 -0.3461 -2.2477 -54.8117 -2.9527 59.6663 56.7136
3.9000 -0.2815 -2.4222 -55.1820 -2.9648 60.2878 57.3230
3.8000 -0.1833 -2.6118 -55.4784 -2.9738 60.8810 57.9072
3.7000 -0.0196 -2.8180 -55.7173 -2.9814 61.4974 58.5160
3.6000 0.1938 -3.0422 -55.8831 -2.9861 62.1054 59.1194
3.5000 0.4604 -3.2878 -55.9581 -2.9861 62.6924 59.7063
3.4000 0.7453 -3.5571 -55.9611 -2.9813 63.2448 60.2636
3.3000 1.0685 -3.8554 -55.9021 -2.9721 63.7982 60.8260
3.2000 1.4210 -4.1857 -55.7790 -2.9596 64.3452 61.3857
3.1000 1.7141 -4.5519 -55.6167 -2.9335 64.8161 61.8826
3.0000 2.0229 -4.9584 -55.4098 -2.9054 65.2964 62.3911
2.9000 2.2430 -5.4096 -55.1971 -2.8703 65.7201 62.8498
2.8000 2.3458 -5.9105 -54.9909 -2.8248 66.0720 63.2472
2.7000 2.3406 -6.4660 -54.7979 -2.7720 66.3765 63.6045
2.6000 2.2172 -7.0807 -54.6021 -2.7117 66.6116 63.8999
2.5000 2.0030 -7.7577 -54.4290 -2.6417 66.8314 64.1897
2.4000 1.6616 -8.4975 -54.2817 -2.5596 67.0003 64.4407
2.3000 1.2004 -9.2944 -54.1683 -2.4720 67.1350 64.6630
2.2000 0.6448 -10.1315 -54.0863 -2.3767 67.2391 64.8624
2.1000 0.0287 -10.9695 -54.0432 -2.2733 67.3144 65.0411
2.0000 -0.5844 -11.7267 -54.0318 -2.1582 67.3319 65.1737
1.9000 -1.0028 -12.2381 -54.0562 -2.0354 67.3266 65.2913
1.8000 -0.8865 -12.1716 -54.1284 -1.9045 67.3177 65.4133
1.7000 0.3968 -10.8451 -54.2394 -1.7667 67.2478 65.4811
1.6000 4.3389 -6.8090 -54.3801 -1.6202 67.1479 65.5278
1.5000 14.1713 3.1729 -54.5584 -1.4669 67.0234 65.5565
1.4000 37.6187 26.7976 -54.7519 -1.3077 66.8803 65.5727
1.3000 94.4292 83.8232 -54.9539 -1.1428 66.7024 65.5596
