# 0-dist(Ang),1-dGtot,2-dGvac,3-dGele,4-dGdis,5-dGcav,6-dGvdw(kT)
13.5000 0.0000 0.0000 0.0000 0.0000 0.0000 0.0000
13.4000 0.0004 0.0000 -0.7000 -0.0064 0.7068 0.7003
13.3000 0.0008 0.0000 -1.4029 -0.0108 1.4145 1.4037
13.2000 0.0069 0.0000 -2.0989 -0.0145 2.1203 2.1058
13.1000 0.0211 0.0000 -2.7840 -0.0197 2.8248 2.8050
13.0000 0.0400 0.0000 -3.4844 -0.0244 3.5488 3.5244
12.9000 0.0625 0.0000 -4.1990 -0.0297 4.2913 4.2616
12.8000 0.0776 0.0000 -4.9124 -0.0358 5.0259 4.9901
12.7000 0.1001 0.0000 -5.6017 -0.0396 5.7415 5.7019
12.6000 0.1096 0.0000 -6.3021 -0.0453 6.4571 6.4117
12.5000 0.1201 0.0000 -7.0035 -0.0499 7.1735 7.1236
12.4000 0.1614 0.0000 -7.6718 -0.0553 7.8884 7.8331
12.3000 0.1806 0.0000 -8.3550 -0.0612 8.5968 8.5356
12.2000 0.1769 0.0000 -9.0334 -0.0675 9.2777 9.2102
12.1000 0.1842 0.0000 -9.7201 -0.0737 9.9779 9.9043
12.0000 0.1855 -0.0000 -10.4042 -0.0800 10.6698 10.5898
11.9000 0.1815 -0.0027 -11.0960 -0.0855 11.3657 11.2802
11.8000 0.1832 -0.0075 -11.7980 -0.0910 12.0797 11.9887
11.7000 0.1600 -0.0158 -12.5036 -0.0976 12.7770 12.6794
11.6000 0.1517 -0.0288 -13.1939 -0.1035 13.4780 13.3745
11.5000 0.1218 -0.0459 -13.8861 -0.1091 14.1630 14.0538
11.4000 0.0919 -0.0670 -14.5813 -0.1124 14.8526 14.7402
11.3000 0.0580 -0.0915 -15.2795 -0.1185 15.5475 15.4290
11.2000 0.0263 -0.1190 -15.9633 -0.1244 16.2330 16.1087
11.1000 0.0041 -0.1493 -16.6757 -0.1301 16.9593 16.8292
11.0000 -0.0153 -0.1811 -17.3758 -0.1355 17.6770 17.5416
10.9000 -0.0037 -0.2092 -18.1149 -0.1401 18.4605 18.3204
10.8000 0.0063 -0.2343 -18.7964 -0.1454 19.1824 19.0370
10.7000 0.0114 -0.2544 -19.5194 -0.1493 19.9344 19.7851
10.6000 0.0341 -0.2657 -20.2213 -0.1548 20.6760 20.5212
10.5000 0.0595 -0.2700 -20.9202 -0.1575 21.4073 21.2498
10.4000 0.0989 -0.2692 -21.6348 -0.1610 22.1640 22.0030
10.3000 0.1478 -0.2652 -22.3283 -0.1654 22.9067 22.7413
10.2000 0.1848 -0.2627 -23.0204 -0.1699 23.6378 23.4680
10.1000 0.2067 -0.2655 -23.6797 -0.1740 24.3260 24.1520
10.0000 0.2311 -0.2741 -24.3655 -0.1770 25.0477 24.8707
9.9000 0.2402 -0.2883 -25.0601 -0.1806 25.7692 25.5886
9.8000 0.2460 -0.3089 -25.7298 -0.1850 26.4696 26.2847
9.7000 0.2511 -0.3358 -26.3983 -0.1881 27.1732 26.9851
9.6000 0.2328 -0.3689 -27.0446 -0.1917 27.8379 27.6462
9.5000 0.2145 -0.4078 -27.7018 -0.1961 28.5202 28.3242
9.4000 0.1838 -0.4530 -28.3659 -0.1993 29.2021 29.0028
9.3000 0.1402 -0.5025 -29.0203 -0.2043 29.8672 29.6630
9.2000 0.0994 -0.5541 -29.6875 -0.2094 30.5505 30.3411
9.1000 0.0510 -0.6090 -30.3658 -0.2162 31.2422 31.0260
9.0000 -0.0063 -0.6675 -31.0257 -0.2224 31.9094 31.6870
8.9000 -0.0570 -0.7301 -31.6856 -0.2267 32.5855 32.3588
8.8000 -0.0995 -0.7881 -32.3615 -0.2315 33.2818 33.0503
8.7000 -0.1305 -0.8421 -33.0435 -0.2370 33.9922 33.7552
8.6000 -0.1495 -0.8916 -33.7122 -0.2435 34.6981 34.4546
8.5000 -0.1370 -0.9378 -34.3832 -0.2501 35.4343 35.1842
8.4000 -0.1213 -0.9785 -35.0421 -0.2559 36.1554 35.8996
8.3000 -0.0847 -1.0172 -35.7059 -0.2626 36.9013 36.6387
8.2000 -0.0454 -1.0553 -36.3501 -0.2698 37.6300 37.3602
8.1000 -0.0170 -1.0945 -37.0045 -0.2762 38.3584 38.0822
8.0000 0.0465 -1.1391 -37.6344 -0.2823 39.1025 38.8202
7.9000 0.0818 -1.1944 -38.2578 -0.2896 39.8239 39.5343
7.8000 0.1380 -1.2590 -38.8664 -0.2963 40.5599 40.2636
7.7000 0.1727 -1.3328 -39.4950 -0.2997 41.3004 41.0007
7.6000 0.2065 -1.4144 -40.0950 -0.3049 42.0209 41.7160
7.5000 0.2235 -1.5017 -40.6952 -0.3083 42.7287 42.4204
7.4000 0.2339 -1.5954 -41.2658 -0.3120 43.4072 43.0951
7.3000 0.2228 -1.6953 -41.8427 -0.3122 44.0729 43.7608
7.2000 0.2193 -1.8007 -42.4566 -0.3139 44.7907 44.4768
7.1000 0.2138 -1.9087 -43.1044 -0.3131 45.5399 45.2268
7.0000 0.2048 -2.0182 -43.7535 -0.3115 46.2880 45.9765
6.9000 0.1806 -2.1309 -44.4132 -0.3087 47.0335 46.7248
6.8000 0.1705 -2.2472 -45.0886 -0.3055 47.8119 47.5064
6.7000 0.1577 -2.3674 -45.8061 -0.2995 48.6306 48.3311
6.6000 0.1424 -2.4885 -46.5094 -0.2942 49.4344 49.1402
6.5000 0.1273 -2.6106 -47.2074 -0.2900 50.2354 49.9454
6.4000 0.1158 -2.7359 -47.8888 -0.2837 51.0243 50.7405
6.3000 0.1106 -2.8642 -48.5620 -0.2805 51.8175 51.5370
6.2000 0.1134 -2.9979 -49.1958 -0.2783 52.5855 52.3072
6.1000 0.1143 -3.1372 -49.8491 -0.2773 53.3780 53.1007
6.0000 0.1103 -3.2826 -50.4278 -0.2792 54.1001 53.8209
5.9000 0.1093 -3.4351 -50.9911 -0.2830 54.8187 54.5356
5.8000 0.1158 -3.5952 -51.5252 -0.2892 55.5255 55.2363
5.7000 0.0990 -3.7665 -51.9883 -0.2973 56.1512 55.8539
5.6000 0.0768 -3.9487 -52.3895 -0.3059 56.7209 56.4150
5.5000 0.0515 -4.1419 -52.7452 -0.3172 57.2559 56.9387
5.4000 0.0035 -4.3439 -53.0799 -0.3295 57.7570 57.4275
5.3000 -0.0669 -4.5554 -53.3502 -0.3432 58.1820 57.8388
5.2000 -0.1564 -4.7774 -53.5476 -0.3560 58.5250 58.1689
5.1000 -0.2888 -5.0104 -53.7586 -0.3705 58.8510 58.4805
5.0000 -0.4336 -5.2536 -53.9957 -0.3832 59.1992 58.8160
4.9000 -0.6135 -5.5084 -54.2557 -0.3938 59.5446 59.1508
4.8000 -0.7952 -5.7752 -54.5787 -0.4000 59.9591 59.5590
4.7000 -0.9558 -6.0549 -54.9720 -0.4016 60.4730 60.0714
4.6000 -1.0798 -6.3485 -55.4196 -0.3979 61.0865 60.6886
4.5000 -1.1269 -6.6572 -55.8910 -0.3909 61.8126 61.4217
4.4000 -1.1218 -6.9820 -56.4007 -0.3793 62.6405 62.2612
4.3000 -1.0524 -7.3241 -56.9415 -0.3618 63.5753 63.2135
4.2000 -0.8634 -7.6848 -57.5102 -0.3401 64.6720 64.3319
4.1000 -0.5588 -8.0655 -58.1069 -0.3158 65.9296 65.6138
4.0000 -0.1586 -8.4676 -58.6768 -0.2881 67.2742 66.9862
3.9000 0.3329 -8.8932 -59.2852 -0.2563 68.7679 68.5116
3.8000 0.8384 -9.3442 -59.8980 -0.2182 70.2992 70.0810
3.7000 1.3544 -9.8230 -60.5015 -0.1766 71.8558 71.6791
3.6000 1.8621 -10.3320 -61.0529 -0.1284 73.3757 73.2473
3.5000 2.3614 -10.8740 -61.5471 -0.0771 74.8600 74.7829
3.4000 2.8166 -11.4521 -61.9515 -0.0176 76.2383 76.2206
3.3000 3.2327 -12.0697 -62.2684 0.0452 77.5261 77.5713
3.2000 3.5622 -12.7305 -62.4847 0.1116 78.6663 78.7778
3.1000 3.7848 -13.4385 -62.5287 0.1829 79.5694 79.7523
3.0000 3.8909 -14.1978 -62.4929 0.2572 80.3247 80.5820
2.9000 3.8632 -15.0127 -62.2916 0.3366 80.8313 81.1679
2.8000 3.6718 -15.8871 -61.9437 0.4178 81.0851 81.5029
2.7000 3.3676 -16.8244 -61.5195 0.5036 81.2083 81.7118
2.6000 2.9012 -17.8261 -61.0128 0.5924 81.1479 81.7403
2.5000 2.3313 -18.8903 -60.4404 0.6824 80.9798 81.6622
2.4000 1.6384 -20.0087 -59.7961 0.7754 80.6680 81.4434
2.3000 0.8527 -21.1611 -59.1098 0.8704 80.2535 81.1239
2.2000 0.0425 -22.3054 -58.3554 0.9698 79.7336 80.7034
2.1000 -0.7316 -23.3582 -57.5779 1.0689 79.1358 80.2047
2.0000 -1.2854 -24.1589 -56.7734 1.1694 78.4777 79.6471
1.9000 -1.3164 -24.3949 -55.9514 1.2713 77.7586 79.0299
1.8000 -0.1995 -23.4470 -55.0963 1.3750 76.9687 78.3437
1.7000 3.3399 -20.0473 -54.2666 1.4802 76.1735 77.6537
1.6000 12.0098 -11.4810 -53.4361 1.5856 75.3412 76.9268
1.5000 31.9684 8.3953 -52.6011 1.6926 74.4816 76.1742
1.4000 78.0749 54.4390 -51.7771 1.8020 73.6110 75.4130
1.3000 189.1535 165.4674 -50.9558 1.9110 72.7311 74.6421
