# 0-dist(Ang),1-dGtot,2-dGvac,3-dGele,4-dGdis,5-dGcav,6-dGvdw(kT)
13.5000 0.0000 0.0000 0.0000 0.0000 0.0000 0.0000
13.4000 -0.0156 0.0000 -1.9717 -0.0085 1.9646 1.9561
13.3000 -0.0178 0.0000 -3.8994 -0.0179 3.8996 3.8816
13.2000 -0.0351 0.0000 -5.8541 -0.0259 5.8449 5.8190
13.1000 -0.0397 0.0000 -7.7826 -0.0340 7.7769 7.7430
13.0000 -0.0479 0.0000 -9.7662 -0.0427 9.7611 9.7184
12.9000 -0.0566 0.0000 -11.6787 -0.0504 11.6726 11.6222
12.8000 -0.0555 0.0000 -13.6054 -0.0599 13.6099 13.5500
12.7000 -0.0200 0.0000 -15.5429 -0.0693 15.5923 15.5230
12.6000 -0.0082 0.0000 -17.4940 -0.0771 17.5631 17.4860
12.5000 0.0136 0.0000 -19.4398 -0.0860 19.5396 19.4537
12.4000 0.0391 0.0000 -21.3949 -0.0948 21.5291 21.4343
12.3000 0.0689 0.0000 -23.3300 -0.1044 23.5035 23.3992
12.2000 0.0907 0.0000 -25.2678 -0.1124 25.4711 25.3587
12.1000 0.1109 0.0000 -27.1764 -0.1201 27.4077 27.2876
12.0000 0.1180 0.0000 -29.1259 -0.1284 29.3726 29.2442
11.9000 0.1237 -0.0037 -31.0286 -0.1372 31.2935 31.1563
11.8000 0.1205 -0.0102 -32.9496 -0.1461 33.2268 33.0807
11.7000 0.1364 -0.0198 -34.8369 -0.1555 35.1491 34.9935
11.6000 0.1477 -0.0323 -36.7414 -0.1630 37.0848 36.9218
11.5000 0.1414 -0.0480 -38.6628 -0.1708 39.0234 38.8525
11.4000 0.1455 -0.0667 -40.6012 -0.1792 40.9932 40.8139
11.3000 0.1353 -0.0887 -42.5474 -0.1884 42.9601 42.7718
11.2000 0.1372 -0.1139 -44.4379 -0.1970 44.8863 44.6893
11.1000 0.1298 -0.1425 -46.3695 -0.2051 46.8473 46.6422
11.0000 0.1236 -0.1744 -48.2762 -0.2141 48.7887 48.5746
10.9000 0.1204 -0.2074 -50.1898 -0.2214 50.7393 50.5179
10.8000 0.0932 -0.2380 -52.1579 -0.2300 52.7194 52.4894
10.7000 0.0830 -0.2666 -54.1269 -0.2391 54.7158 54.4768
10.6000 0.0911 -0.2914 -56.0489 -0.2468 56.6785 56.4317
10.5000 0.0816 -0.3178 -58.0154 -0.2561 58.6712 58.4151
10.4000 0.0788 -0.3480 -59.9601 -0.2642 60.6513 60.3872
10.3000 0.0702 -0.3833 -61.9048 -0.2732 62.6318 62.3586
10.2000 0.0526 -0.4229 -63.8754 -0.2817 64.6331 64.3514
10.1000 0.0611 -0.4674 -65.8130 -0.2901 66.6320 66.3419
10.0000 0.0617 -0.5168 -67.7177 -0.2984 68.5949 68.2965
9.9000 0.0719 -0.5725 -69.6296 -0.3059 70.5802 70.2743
9.8000 0.0695 -0.6373 -71.5411 -0.3138 72.5618 72.2480
9.7000 0.0651 -0.7108 -73.4618 -0.3216 74.5596 74.2380
9.6000 0.0592 -0.7978 -75.3205 -0.3290 76.5068 76.1778
9.5000 0.0567 -0.8978 -77.1798 -0.3382 78.4728 78.1346
9.4000 0.0508 -1.0110 -79.0157 -0.3463 80.4241 80.0778
9.3000 0.0397 -1.1363 -80.8479 -0.3559 82.3801 82.0242
9.2000 0.0424 -1.2678 -82.6311 -0.3644 84.3059 83.9415
9.1000 0.0310 -1.4071 -84.4016 -0.3727 86.2127 85.8400
9.0000 0.0366 -1.5517 -86.1632 -0.3800 88.1319 87.7519
8.9000 0.0371 -1.7030 -87.9047 -0.3881 90.0333 89.6452
8.8000 0.0478 -1.8552 -89.6649 -0.3965 91.9647 91.5683
8.7000 0.0641 -2.0076 -91.4281 -0.4062 93.9065 93.5002
8.6000 0.0735 -2.1614 -93.1709 -0.4161 95.8224 95.4062
8.5000 0.1062 -2.3205 -94.9522 -0.4270 97.8064 97.3793
8.4000 0.1135 -2.4905 -96.7279 -0.4373 99.7697 99.3324
8.3000 0.1361 -2.6706 -98.4518 -0.4473 101.7064 101.2591
8.2000 0.1582 -2.8618 -100.2001 -0.4589 103.6795 103.2206
8.1000 0.1793 -3.0656 -101.9636 -0.4677 105.6768 105.2090
8.0000 0.1921 -3.2828 -103.7263 -0.4764 107.6780 107.2017
7.9000 0.1974 -3.5130 -105.4974 -0.4864 109.6947 109.2083
7.8000 0.2077 -3.7570 -107.2041 -0.4942 111.6635 111.1693
7.7000 0.2238 -4.0150 -108.9289 -0.5032 113.6715 113.1683
7.6000 0.2305 -4.2875 -110.6542 -0.5109 115.6837 115.1728
7.5000 0.2477 -4.5761 -112.3462 -0.5172 117.6880 117.1707
7.4000 0.2504 -4.8804 -114.0382 -0.5247 119.6945 119.1697
7.3000 0.2635 -5.2005 -115.6814 -0.5300 121.6760 121.1461
7.2000 0.2666 -5.5369 -117.2742 -0.5347 123.6132 123.0784
7.1000 0.2714 -5.8895 -118.8410 -0.5400 125.5427 125.0027
7.0000 0.2557 -6.2599 -120.3744 -0.5447 127.4355 126.8908
6.9000 0.2311 -6.6475 -121.8696 -0.5494 129.2984 128.7490
6.8000 0.1969 -7.0533 -123.3559 -0.5541 131.1609 130.6067
6.7000 0.1625 -7.4780 -124.8603 -0.5598 133.0613 132.5015
6.6000 0.1015 -7.9221 -126.3753 -0.5662 134.9659 134.3997
6.5000 0.0264 -8.3848 -127.9110 -0.5745 136.8974 136.3229
6.4000 -0.0486 -8.8671 -129.4605 -0.5832 138.8629 138.2797
6.3000 -0.1029 -9.3698 -131.0372 -0.5919 140.8966 140.3047
6.2000 -0.1685 -9.8934 -132.5831 -0.6014 142.9099 142.3086
6.1000 -0.2148 -10.4391 -134.2103 -0.6127 145.0480 144.4353
6.0000 -0.2341 -11.0087 -135.8004 -0.6238 147.1996 146.5758
5.9000 -0.2682 -11.6029 -137.3971 -0.6363 149.3688 148.7325
5.8000 -0.2807 -12.2231 -138.8958 -0.6499 151.4888 150.8389
5.7000 -0.2762 -12.8706 -140.4125 -0.6640 153.6717 153.0077
5.6000 -0.2493 -13.5470 -141.8169 -0.6796 155.7949 155.1153
5.5000 -0.1888 -14.2531 -143.1335 -0.6952 157.8937 157.1985
5.4000 -0.1100 -14.9895 -144.3885 -0.7106 159.9793 159.2687
5.3000 0.0190 -15.7581 -145.5267 -0.7238 162.0282 161.3044
5.2000 0.1640 -16.5605 -146.5371 -0.7364 163.9987 163.2623
5.1000 0.3461 -17.3992 -147.4448 -0.7459 165.9368 165.1909
5.0000 0.5360 -18.2752 -148.2061 -0.7550 167.7732 167.0182
4.9000 0.7391 -19.1905 -148.7976 -0.7621 169.4902 168.7281
4.8000 0.9117 -20.1473 -149.2937 -0.7659 171.1195 170.3536
4.7000 0.9597 -21.1453 -149.7356 -0.7700 172.6113 171.8414
4.6000 0.8574 -22.1877 -150.1715 -0.7727 173.9901 173.2173
4.5000 0.6507 -23.2767 -150.7179 -0.7762 175.4223 174.6461
4.4000 0.4154 -24.4143 -151.4054 -0.7771 177.0129 176.2358
4.3000 0.1918 -25.6037 -152.2116 -0.7801 178.7879 178.0077
4.2000 0.0632 -26.8475 -153.1225 -0.7819 180.8159 180.0340
4.1000 -0.0292 -28.1489 -154.1224 -0.7835 183.0264 182.2429
4.0000 -0.0774 -29.5100 -155.1461 -0.7823 185.3619 184.5796
3.9000 -0.1156 -30.9352 -156.2116 -0.7809 187.8131 187.0322
3.8000 -0.2008 -32.4293 -157.3459 -0.7782 190.3536 189.5753
3.7000 -0.2848 -33.9971 -158.5439 -0.7749 193.0320 192.2571
3.6000 -0.3471 -35.6437 -159.8440 -0.7703 195.9118 195.1416
3.5000 -0.3546 -37.3748 -161.1533 -0.7633 198.9378 198.1745
3.4000 -0.2845 -39.1963 -162.4430 -0.7531 202.1089 201.3558
3.3000 -0.1434 -41.1157 -163.6609 -0.7385 205.3729 204.6344
3.2000 0.0580 -43.1408 -164.7802 -0.7219 208.7021 207.9801
3.1000 0.3085 -45.2792 -165.6688 -0.7019 211.9596 211.2576
3.0000 0.6188 -47.5404 -166.2956 -0.6762 215.1322 214.4560
2.9000 0.9474 -49.9350 -166.5851 -0.6479 218.1166 217.4687
2.8000 1.2660 -52.4744 -166.5242 -0.6159 220.8815 220.2656
2.7000 1.5468 -55.1704 -166.1289 -0.5804 223.4276 222.8472
2.6000 1.7215 -58.0360 -165.2764 -0.5418 225.5769 225.0352
2.5000 1.8223 -61.0846 -164.0118 -0.5011 227.4209 226.9199
2.4000 1.7685 -64.3284 -162.3807 -0.4578 228.9367 228.4789
2.3000 1.5403 -67.7768 -160.3532 -0.4114 230.0827 229.6714
2.2000 1.1022 -71.4317 -157.9856 -0.3625 230.8831 230.5206
2.1000 0.4731 -75.2798 -155.2910 -0.3120 231.3571 231.0451
2.0000 -0.3769 -79.2751 -152.3187 -0.2619 231.4799 231.2180
1.9000 -1.3029 -83.3053 -149.1124 -0.2081 231.3239 231.1158
1.8000 -2.0860 -87.1187 -145.7215 -0.1540 230.9093 230.7553
1.7000 -2.1480 -90.1619 -142.1054 -0.0975 230.2179 230.1205
1.6000 -0.2632 -91.1996 -138.3915 -0.0415 229.3706 229.3291
1.5000 6.4086 -87.3669 -134.5208 0.0173 228.2799 228.2973
1.4000 24.8759 -71.6330 -130.6287 0.0776 227.0612 227.1388
1.3000 73.6431 -25.4785 -126.7173 0.1399 225.7002 225.8401
