# 0-dist(Ang),1-dGtot,2-dGvac,3-dGele,4-dGdis,5-dGcav,6-dGvdw(kT)
13.5000 0.0000 0.0000 0.0000 0.0000 0.0000 0.0000
13.4000 -0.0218 0.0000 -0.3090 -0.0007 0.2879 0.2872
13.3000 -0.0211 0.0000 -0.6140 0.0015 0.5914 0.5928
13.2000 -0.0194 0.0000 -0.9158 0.0006 0.8958 0.8963
13.1000 -0.0263 0.0000 -1.2127 0.0004 1.1860 1.1864
13.0000 -0.0326 0.0000 -1.5253 0.0005 1.4921 1.4927
12.9000 -0.0329 0.0000 -1.8197 0.0009 1.7859 1.7867
12.8000 -0.0341 0.0000 -2.1379 -0.0001 2.1039 2.1038
12.7000 -0.0241 0.0000 -2.4455 0.0017 2.4196 2.4213
12.6000 -0.0196 0.0000 -2.7375 0.0016 2.7163 2.7179
12.5000 0.0034 0.0000 -3.0298 0.0008 3.0324 3.0332
12.4000 0.0273 0.0000 -3.3224 -0.0007 3.3504 3.3496
12.3000 0.0350 0.0000 -3.6201 -0.0011 3.6561 3.6550
12.2000 0.0607 0.0000 -3.8970 -0.0020 3.9596 3.9576
12.1000 0.0705 0.0000 -4.1895 -0.0018 4.2619 4.2601
12.0000 0.0987 0.0000 -4.4734 -0.0008 4.5727 4.5719
11.9000 0.1192 -0.0034 -4.7465 -0.0023 4.8711 4.8689
11.8000 0.1489 -0.0095 -5.0241 -0.0036 5.1859 5.1823
11.7000 0.1675 -0.0184 -5.3131 -0.0039 5.5027 5.4989
11.6000 0.1800 -0.0301 -5.5935 -0.0035 5.8069 5.8034
11.5000 0.1959 -0.0447 -5.8859 -0.0019 6.1282 6.1263
11.4000 0.1987 -0.0627 -6.1727 -0.0014 6.4354 6.4340
11.3000 0.2265 -0.0844 -6.4728 -0.0021 6.7856 6.7835
11.2000 0.2234 -0.1097 -6.7608 -0.0013 7.0950 7.0937
11.1000 0.2218 -0.1388 -7.0630 0.0005 7.4229 7.4235
11.0000 0.2083 -0.1717 -7.3482 -0.0007 7.7287 7.7280
10.9000 0.2023 -0.2074 -7.6524 -0.0008 8.0626 8.0618
10.8000 0.1844 -0.2455 -7.9251 0.0005 8.3542 8.3547
10.7000 0.1735 -0.2856 -8.2083 0.0010 8.6661 8.6671
10.6000 0.1637 -0.3254 -8.4850 0.0005 8.9732 8.9737
10.5000 0.1635 -0.3656 -8.7688 -0.0001 9.2977 9.2976
10.4000 0.1660 -0.4065 -9.0100 -0.0013 9.5835 9.5822
10.3000 0.1643 -0.4499 -9.2734 0.0008 9.8865 9.8872
10.2000 0.1577 -0.4960 -9.5360 0.0017 10.1877 10.1894
10.1000 0.1629 -0.5449 -9.7911 0.0027 10.4959 10.4985
10.0000 0.1462 -0.5956 -10.0198 0.0022 10.7591 10.7614
9.9000 0.1547 -0.6522 -10.2563 0.0033 11.0596 11.0629
9.8000 0.1613 -0.7144 -10.4940 0.0038 11.3657 11.3695
9.7000 0.1707 -0.7831 -10.7118 0.0020 11.6634 11.6654
9.6000 0.1811 -0.8596 -10.9410 0.0013 11.9801 11.9815
9.5000 0.1957 -0.9443 -11.1631 0.0015 12.3012 12.3027
9.4000 0.2121 -1.0375 -11.3773 0.0013 12.6251 12.6264
9.3000 0.2203 -1.1391 -11.5934 -0.0004 12.9528 12.9524
9.2000 0.2259 -1.2499 -11.7909 0.0001 13.2663 13.2663
9.1000 0.2217 -1.3690 -11.9895 0.0002 13.5797 13.5798
9.0000 0.2056 -1.4944 -12.2056 -0.0017 13.9070 13.9053
8.9000 0.1980 -1.6272 -12.4055 -0.0025 14.2330 14.2305
8.8000 0.2059 -1.7613 -12.6114 -0.0022 14.5806 14.5784
8.7000 0.2218 -1.8990 -12.7845 -0.0029 14.9079 14.9050
8.6000 0.2275 -2.0405 -12.9587 -0.0023 15.2288 15.2265
8.5000 0.2428 -2.1864 -13.1319 -0.0013 15.5622 15.5609
8.4000 0.2788 -2.3371 -13.2868 0.0008 15.8688 15.8696
8.3000 0.2836 -2.4920 -13.4427 0.0017 16.1835 16.1852
8.2000 0.2936 -2.6521 -13.5665 0.0033 16.4758 16.4792
8.1000 0.3099 -2.8189 -13.6972 0.0058 16.7871 16.7929
8.0000 0.3113 -2.9963 -13.8304 0.0070 17.1309 17.1379
7.9000 0.3213 -3.1847 -13.9357 0.0093 17.4322 17.4415
7.8000 0.3555 -3.3861 -14.0348 0.0096 17.7666 17.7762
7.7000 0.3575 -3.6006 -14.1265 0.0109 18.0736 18.0845
7.6000 0.3706 -3.8307 -14.2251 0.0126 18.4138 18.4264
7.5000 0.3840 -4.0770 -14.2861 0.0141 18.7330 18.7471
7.4000 0.3899 -4.3403 -14.3287 0.0154 19.0435 19.0589
7.3000 0.3991 -4.6202 -14.3759 0.0157 19.3795 19.3951
7.2000 0.3881 -4.9176 -14.4378 0.0169 19.7264 19.7434
7.1000 0.3850 -5.2333 -14.4549 0.0169 20.0561 20.0731
7.0000 0.3456 -5.5672 -14.4704 0.0154 20.3675 20.3830
6.9000 0.2841 -5.9204 -14.4437 0.0141 20.6337 20.6479
6.8000 0.2195 -6.2894 -14.4366 0.0117 20.9335 20.9453
6.7000 0.1697 -6.6727 -14.3913 0.0090 21.2245 21.2334
6.6000 0.0925 -7.0688 -14.3384 0.0069 21.4924 21.4993
6.5000 -0.0013 -7.4790 -14.2573 0.0032 21.7317 21.7349
6.4000 -0.0716 -7.9035 -14.1712 0.0020 22.0007 22.0027
6.3000 -0.1395 -8.3434 -14.0499 0.0007 22.2526 22.2534
6.2000 -0.2066 -8.7991 -13.9176 -0.0010 22.5107 22.5096
6.1000 -0.2597 -9.2717 -13.7547 -0.0019 22.7682 22.7663
6.0000 -0.2798 -9.7624 -13.5894 -0.0026 23.0742 23.0717
5.9000 -0.2875 -10.2762 -13.4110 -0.0015 23.4009 23.3994
5.8000 -0.2737 -10.8143 -13.1907 -0.0006 23.7316 23.7310
5.7000 -0.2327 -11.3771 -12.9484 0.0004 24.0920 24.0924
5.6000 -0.1643 -11.9657 -12.6614 0.0015 24.4608 24.4623
5.5000 -0.1216 -12.5810 -12.3712 0.0031 24.8669 24.8700
5.4000 0.0336 -13.2246 -12.0384 0.0057 25.2904 25.2961
5.3000 0.1691 -13.8970 -11.6868 0.0069 25.7457 25.7526
5.2000 0.3356 -14.5992 -11.2850 0.0105 26.2088 26.2193
5.1000 0.5028 -15.3329 -10.8468 0.0128 26.6695 26.6822
5.0000 0.6710 -16.0995 -10.3776 0.0156 27.1321 27.1477
4.9000 0.7930 -16.9002 -9.8200 0.0187 27.4943 27.5130
4.8000 0.8365 -17.7370 -9.2075 0.0190 27.7618 27.7808
4.7000 0.7533 -18.6114 -8.5880 0.0222 27.9303 27.9524
4.6000 0.5536 -19.5258 -7.9523 0.0244 28.0069 28.0313
4.5000 0.3401 -20.4822 -7.3482 0.0316 28.1385 28.1701
4.4000 0.1966 -21.4827 -6.7245 0.0404 28.3630 28.4034
4.3000 0.1323 -22.5299 -6.0844 0.0526 28.6936 28.7462
4.2000 0.1832 -23.6266 -5.3704 0.0659 29.1139 29.1798
4.1000 0.3400 -24.7757 -4.5554 0.0787 29.5921 29.6707
4.0000 0.4742 -25.9804 -3.6216 0.0904 29.9854 30.0759
3.9000 0.5375 -27.2441 -2.5244 0.1013 30.2043 30.3056
3.8000 0.5349 -28.5708 -1.2866 0.1124 30.2794 30.3918
3.7000 0.5102 -29.9645 0.0652 0.1266 30.2824 30.4090
3.6000 0.4657 -31.4300 1.5317 0.1424 30.2210 30.3634
3.5000 0.4268 -32.9723 3.1286 0.1611 30.1089 30.2700
3.4000 0.4726 -34.5972 4.8689 0.1833 30.0169 30.2003
3.3000 0.5423 -36.3109 6.7712 0.2105 29.8711 30.0815
3.2000 0.6790 -38.1205 8.8423 0.2413 29.7154 29.9567
3.1000 0.8449 -40.0337 11.0792 0.2755 29.5235 29.7990
3.0000 0.9907 -42.0591 13.4884 0.3107 29.2903 29.6010
2.9000 1.2102 -44.2061 16.0473 0.3513 29.0173 29.3687
2.8000 1.3387 -46.4851 18.7458 0.3950 28.6826 29.0776
2.7000 1.3969 -48.9069 21.6120 0.4398 28.2515 28.6914
2.6000 1.3699 -51.4831 24.6112 0.4847 27.7567 28.2415
2.5000 1.2316 -54.2249 27.7066 0.5347 27.2149 27.7496
2.4000 0.9701 -57.1420 30.8965 0.5854 26.6297 27.2152
2.3000 0.5412 -60.2398 34.1611 0.6389 25.9806 26.6195
2.2000 -0.0167 -63.5148 37.5037 0.6959 25.2982 25.9941
2.1000 -0.7111 -66.9449 40.8910 0.7566 24.5859 25.3425
2.0000 -1.5009 -70.4704 44.3028 0.8208 23.8455 24.6663
1.9000 -2.2870 -73.9565 47.7322 0.8887 23.0483 23.9370
1.8000 -2.8073 -77.1135 51.1731 0.9594 22.1734 23.1328
1.7000 -2.4349 -79.3229 54.6165 1.0341 21.2372 22.2712
1.6000 0.1755 -79.2342 58.0376 1.1127 20.2594 21.3721
1.5000 8.0875 -73.7744 61.4337 1.1957 19.2324 20.4281
1.4000 28.7058 -55.5278 64.7885 1.2838 18.1613 19.4452
1.3000 81.2632 -5.2442 68.0974 1.3751 17.0352 18.4103
