# 0-dist(Ang),1-dGtot,2-dGvac,3-dGele,4-dGdis,5-dGcav,6-dGvdw(kT)
13.5000 0.0000 0.0000 0.0000 0.0000 0.0000 0.0000
13.4000 0.0159 0.0000 -0.0060 -0.0066 0.0285 0.0220
13.3000 0.0480 0.0000 -0.0063 -0.0112 0.0655 0.0543
13.2000 0.0918 0.0000 -0.0190 -0.0133 0.1242 0.1109
13.1000 0.1196 -0.0000 -0.0517 -0.0150 0.1863 0.1712
13.0000 0.1581 -0.0001 -0.0575 -0.0157 0.2314 0.2157
12.9000 0.2036 -0.0001 -0.0808 -0.0180 0.3025 0.2844
12.8000 0.2651 -0.0002 -0.0862 -0.0207 0.3721 0.3514
12.7000 0.3074 -0.0002 -0.0986 -0.0187 0.4247 0.4060
12.6000 0.3504 -0.0003 -0.1166 -0.0187 0.4860 0.4673
12.5000 0.4054 -0.0005 -0.1311 -0.0157 0.5527 0.5370
12.4000 0.4613 -0.0006 -0.1529 -0.0175 0.6322 0.6148
12.3000 0.5065 -0.0008 -0.1515 -0.0153 0.6740 0.6587
12.2000 0.5221 -0.0009 -0.1415 -0.0132 0.6776 0.6644
12.1000 0.5292 -0.0013 -0.1417 -0.0088 0.6809 0.6721
12.0000 0.5297 -0.0034 -0.1378 -0.0088 0.6796 0.6708
11.9000 0.5087 -0.0083 -0.1431 -0.0045 0.6645 0.6600
11.8000 0.4743 -0.0094 -0.1374 0.0025 0.6185 0.6210
11.7000 0.4135 -0.0145 -0.1169 0.0068 0.5381 0.5448
11.6000 0.3548 -0.0171 -0.1238 0.0100 0.4857 0.4957
11.5000 0.2827 -0.0209 -0.1187 0.0142 0.4082 0.4224
11.4000 0.2091 -0.0264 -0.1244 0.0202 0.3396 0.3599
11.3000 0.1575 -0.0252 -0.1341 0.0233 0.2934 0.3168
11.2000 0.0921 -0.0198 -0.1460 0.0272 0.2306 0.2579
11.1000 0.0200 -0.0134 -0.1651 0.0297 0.1688 0.1985
11.0000 -0.0575 -0.0084 -0.1691 0.0346 0.0854 0.1200
10.9000 -0.1314 -0.0044 -0.2035 0.0346 0.0418 0.0765
10.8000 -0.2016 -0.0008 -0.2322 0.0364 -0.0049 0.0315
10.7000 -0.2442 0.0026 -0.2887 0.0369 0.0050 0.0419
10.6000 -0.2836 0.0060 -0.3298 0.0373 0.0029 0.0401
10.5000 -0.3209 0.0083 -0.3506 0.0350 -0.0137 0.0213
10.4000 -0.3524 0.0104 -0.3564 0.0300 -0.0366 -0.0065
10.3000 -0.3831 0.0115 -0.3561 0.0216 -0.0601 -0.0385
10.2000 -0.3890 0.0112 -0.3583 0.0123 -0.0542 -0.0420
10.1000 -0.3909 0.0105 -0.3638 0.0014 -0.0390 -0.0376
10.0000 -0.3772 0.0093 -0.3357 -0.0129 -0.0379 -0.0508
9.9000 -0.3226 0.0077 -0.3198 -0.0285 0.0180 -0.0106
9.8000 -0.2735 0.0057 -0.3045 -0.0405 0.0657 0.0252
9.7000 -0.2053 0.0033 -0.2822 -0.0554 0.1291 0.0737
9.6000 -0.1235 0.0005 -0.2294 -0.0646 0.1700 0.1053
9.5000 -0.0173 -0.0024 -0.1687 -0.0754 0.2292 0.1538
9.4000 0.1432 -0.0056 -0.1065 -0.0824 0.3377 0.2553
9.3000 0.3065 -0.0091 -0.0455 -0.0855 0.4467 0.3612
9.2000 0.5181 -0.0128 -0.0034 -0.0848 0.6192 0.5344
9.1000 0.7586 -0.0170 0.0509 -0.0774 0.8020 0.7246
9.0000 1.0537 -0.0214 0.0647 -0.0662 1.0767 1.0105
8.9000 1.3150 -0.0263 0.0777 -0.0427 1.3063 1.2637
8.8000 1.5570 -0.0316 0.0758 -0.0154 1.5281 1.5127
8.7000 1.7477 -0.0373 0.0948 0.0186 1.6717 1.6902
8.6000 1.8596 -0.0436 0.1094 0.0573 1.7366 1.7938
8.5000 1.9031 -0.0505 0.1400 0.0966 1.7171 1.8137
8.4000 1.8675 -0.0581 0.1400 0.1404 1.6452 1.7856
8.3000 1.8121 -0.0663 0.1501 0.1849 1.5434 1.7283
8.2000 1.6822 -0.0753 0.1627 0.2266 1.3681 1.5948
8.1000 1.4927 -0.0851 0.1751 0.2706 1.1320 1.4026
8.0000 1.2843 -0.0960 0.1749 0.3099 0.8953 1.2053
7.9000 1.0761 -0.1078 0.1959 0.3438 0.6441 0.9878
7.8000 0.8100 -0.1208 0.1761 0.3761 0.3784 0.7546
7.7000 0.5180 -0.1351 0.1756 0.4033 0.0740 0.4773
7.6000 0.2466 -0.1508 0.1851 0.4251 -0.2128 0.2123
7.5000 -0.0557 -0.1681 0.1759 0.4413 -0.5048 -0.0635
7.4000 -0.3496 -0.1872 0.1463 0.4520 -0.7608 -0.3089
7.3000 -0.6446 -0.2082 0.1361 0.4588 -1.0315 -0.5727
7.2000 -0.9333 -0.2314 0.0860 0.4592 -1.2473 -0.7881
7.1000 -1.1896 -0.2569 0.0390 0.4585 -1.4302 -0.9718
7.0000 -1.4129 -0.2852 -0.0059 0.4551 -1.5769 -1.1218
6.9000 -1.6077 -0.3165 -0.0693 0.4532 -1.6751 -1.2219
6.8000 -1.7576 -0.3512 -0.1615 0.4598 -1.7048 -1.2450
6.7000 -1.8288 -0.3896 -0.2522 0.4676 -1.6548 -1.1872
6.6000 -1.8004 -0.4322 -0.3645 0.4895 -1.4933 -1.0038
6.5000 -1.6715 -0.4795 -0.4957 0.5287 -1.2250 -0.6964
6.4000 -1.3923 -0.5321 -0.6706 0.5799 -0.7696 -0.1897
6.3000 -0.9282 -0.5905 -0.8512 0.6449 -0.1315 0.5134
6.2000 -0.2303 -0.6555 -1.0640 0.7256 0.7635 1.4891
6.1000 0.7302 -0.7280 -1.2918 0.8226 1.9271 2.7497
6.0000 2.0314 -0.8087 -1.5324 0.9281 3.4441 4.3722
5.9000 3.6483 -0.8987 -1.7881 1.0566 5.2782 6.3349
5.8000 5.2329 -0.9991 -1.9534 1.2300 6.9552 8.1853
5.7000 6.1521 -1.1113 -1.8598 1.4665 7.6565 9.1230
5.6000 6.6318 -1.2366 -1.6089 1.7361 7.7410 9.4771
5.5000 6.8095 -1.3766 -1.2242 2.0306 7.3794 9.4100
5.4000 6.8448 -1.5332 -0.7656 2.3449 6.7984 9.1433
5.3000 6.8027 -1.7082 -0.2859 2.6718 6.1246 8.7965
5.2000 6.7081 -1.9039 0.2089 3.0130 5.3897 8.4027
5.1000 6.6022 -2.1226 0.7173 3.3636 4.6435 8.0070
5.0000 6.4082 -2.3669 1.2607 3.7295 3.7845 7.5140
4.9000 6.1820 -2.6395 1.8368 4.1030 2.8812 6.9843
4.8000 5.8863 -2.9432 2.4512 4.4913 1.8867 6.3780
4.7000 5.5495 -3.2807 3.0828 4.8843 0.8628 5.7471
4.6000 5.1377 -3.6548 3.7324 5.2898 -0.2299 5.0599
4.5000 4.6503 -4.0674 4.4076 5.7019 -1.3921 4.3099
4.4000 4.0878 -4.5200 5.1082 6.1201 -2.6206 3.4995
4.3000 3.4430 -5.0122 5.8414 6.5453 -3.9318 2.6135
4.2000 2.7130 -5.5410 6.5938 6.9780 -5.3179 1.6600
4.1000 1.9128 -6.0994 7.3617 7.4108 -6.7604 0.6504
4.0000 1.0319 -6.6740 8.1557 7.8495 -8.2993 -0.4498
3.9000 0.1032 -7.2412 8.9317 8.2895 -9.8768 -1.5873
3.8000 -0.8379 -7.7619 9.7241 8.7282 -11.5285 -2.8002
3.7000 -1.7258 -8.1731 10.5394 9.1699 -13.2621 -4.0922
3.6000 -2.4475 -8.3748 11.3286 9.6089 -15.0102 -5.4014
3.5000 -2.8451 -8.2101 12.1276 10.0481 -16.8107 -6.7626
3.4000 -2.6858 -7.4327 12.9130 10.4851 -18.6513 -8.1662
3.3000 -1.5672 -5.6563 13.6946 10.9188 -20.5244 -9.6056
3.2000 1.1396 -2.2722 14.4782 11.3473 -22.4137 -11.0664
3.1000 6.3730 3.6863 15.2515 11.7745 -24.3392 -12.5648
3.0000 15.7217 13.7709 16.0214 12.1938 -26.2644 -14.0707
2.9000 31.6775 30.5048 16.7887 12.6054 -28.2214 -15.6161
2.8000 58.4099 58.0572 17.5736 13.0116 -30.2326 -17.2210
2.7000 102.9395 103.4450 18.3536 13.4118 -32.2711 -18.8593
2.6000 177.3242 178.7229 19.1216 13.8022 -34.3226 -20.5205
2.5000 302.7405 305.0637 19.8900 14.1821 -36.3953 -22.2133
2.4000 517.2240 520.5060 20.6714 14.5545 -38.5080 -23.9535
2.3000 890.5932 894.8722 21.4447 14.9135 -40.6372 -25.7237
2.2000 1553.3971 1558.6900 22.2238 15.2596 -42.7763 -27.5167
2.1000 2752.6406 2759.0037 23.0264 15.5916 -44.9810 -29.3894
2.0000 4957.6096 4965.0984 23.8414 15.9108 -47.2403 -31.3296
1.9000 9053.4571 9062.1159 24.6546 16.2095 -49.5218 -33.3123
1.8000 16681.4045 16691.2503 25.4465 16.4908 -51.7812 -35.2904
1.7000 30830.5931 30841.6888 26.2807 16.7478 -54.1202 -37.3724
1.6000 56982.8851 56995.2919 27.0954 16.9845 -56.4787 -39.4942
1.5000 105953.7306 105967.4946 27.9407 17.1914 -58.8882 -41.6968
1.4000 202462.9523 202478.1767 28.8050 17.3716 -61.3663 -43.9947
1.3000 411960.8599 411977.5841 29.6618 17.5203 -63.8605 -46.3401
