# 0-dist(Ang),1-dGtot,2-dGvac,3-dGele,4-dGdis,5-dGcav,6-dGvdw(kT)
13.5000 0.0000 0.0000 0.0000 0.0000 0.0000 0.0000
13.4000 0.0100 0.0000 0.0087 0.0047 -0.0034 0.0013
13.3000 0.0273 0.0000 0.0010 0.0066 0.0197 0.0263
13.2000 0.0468 0.0000 -0.0004 0.0078 0.0395 0.0472
13.1000 0.0640 0.0004 -0.0102 0.0111 0.0628 0.0739
13.0000 0.0861 0.0014 -0.0243 0.0126 0.0965 0.1091
12.9000 0.0968 0.0024 -0.0221 0.0183 0.0983 0.1166
12.8000 0.1177 0.0035 -0.0264 0.0215 0.1192 0.1407
12.7000 0.1411 0.0046 -0.0349 0.0244 0.1472 0.1716
12.6000 0.1719 0.0055 -0.0433 0.0260 0.1839 0.2098
12.5000 0.1848 0.0064 -0.0525 0.0316 0.1995 0.2311
12.4000 0.2006 0.0080 -0.0645 0.0353 0.2218 0.2572
12.3000 0.2235 0.0098 -0.0643 0.0399 0.2383 0.2782
12.2000 0.2342 0.0118 -0.0691 0.0450 0.2467 0.2917
12.1000 0.2443 0.0138 -0.0748 0.0488 0.2566 0.3054
12.0000 0.2328 0.0123 -0.0709 0.0548 0.2368 0.2916
11.9000 0.2132 0.0009 -0.0863 0.0607 0.2381 0.2988
11.8000 0.1979 -0.0031 -0.0857 0.0707 0.2161 0.2868
11.7000 0.1833 -0.0056 -0.0871 0.0788 0.1972 0.2760
11.6000 0.1591 -0.0043 -0.0897 0.0860 0.1671 0.2531
11.5000 0.1409 -0.0051 -0.0813 0.0935 0.1339 0.2274
11.4000 0.1206 -0.0045 -0.0752 0.1048 0.0956 0.2004
11.3000 0.0871 -0.0053 -0.0809 0.1136 0.0598 0.1735
11.2000 0.0558 -0.0071 -0.0793 0.1219 0.0204 0.1423
11.1000 0.0223 -0.0096 -0.0776 0.1309 -0.0213 0.1096
11.0000 -0.0124 -0.0122 -0.0742 0.1415 -0.0674 0.0741
10.9000 -0.0460 -0.0132 -0.0806 0.1479 -0.1000 0.0479
10.8000 -0.0667 -0.0136 -0.0850 0.1550 -0.1230 0.0320
10.7000 -0.0857 -0.0130 -0.0847 0.1620 -0.1500 0.0120
10.6000 -0.1052 -0.0112 -0.0906 0.1678 -0.1712 -0.0033
10.5000 -0.1138 -0.0086 -0.1009 0.1729 -0.1773 -0.0043
10.4000 -0.1052 -0.0045 -0.1192 0.1751 -0.1565 0.0185
10.3000 -0.1018 -0.0000 -0.1269 0.1746 -0.1494 0.0252
10.2000 -0.0993 0.0056 -0.1368 0.1760 -0.1441 0.0319
10.1000 -0.0843 0.0120 -0.1401 0.1757 -0.1320 0.0438
10.0000 -0.0705 0.0181 -0.1455 0.1744 -0.1176 0.0568
9.9000 -0.0339 0.0236 -0.1551 0.1696 -0.0720 0.0976
9.8000 0.0107 0.0285 -0.1611 0.1674 -0.0241 0.1432
9.7000 0.0681 0.0329 -0.1737 0.1631 0.0457 0.2088
9.6000 0.1325 0.0365 -0.1788 0.1618 0.1129 0.2747
9.5000 0.2051 0.0392 -0.1810 0.1583 0.1886 0.3469
9.4000 0.2808 0.0412 -0.1817 0.1562 0.2651 0.4213
9.3000 0.3701 0.0425 -0.1732 0.1591 0.3417 0.5008
9.2000 0.4760 0.0434 -0.1772 0.1647 0.4452 0.6099
9.1000 0.5767 0.0439 -0.1687 0.1751 0.5264 0.7015
9.0000 0.6885 0.0440 -0.1660 0.1852 0.6252 0.8104
8.9000 0.7918 0.0438 -0.1638 0.2027 0.7090 0.9118
8.8000 0.8661 0.0432 -0.1574 0.2268 0.7535 0.9803
8.7000 0.9246 0.0422 -0.1538 0.2534 0.7827 1.0361
8.6000 0.9594 0.0408 -0.1549 0.2872 0.7861 1.0733
8.5000 0.9597 0.0389 -0.1480 0.3222 0.7464 1.0687
8.4000 0.9295 0.0365 -0.1358 0.3629 0.6658 1.0287
8.3000 0.8710 0.0334 -0.1158 0.4059 0.5475 0.9534
8.2000 0.7905 0.0297 -0.0894 0.4489 0.4013 0.8502
8.1000 0.6886 0.0254 -0.0855 0.4887 0.2600 0.7487
8.0000 0.5782 0.0202 -0.0695 0.5277 0.0997 0.6275
7.9000 0.4534 0.0142 -0.0504 0.5626 -0.0730 0.4896
7.8000 0.3216 0.0072 -0.0280 0.5942 -0.2518 0.3425
7.7000 0.1826 -0.0010 -0.0110 0.6230 -0.4283 0.1947
7.6000 0.0317 -0.0103 0.0152 0.6465 -0.6196 0.0268
7.5000 -0.1178 -0.0211 0.0387 0.6654 -0.8008 -0.1354
7.4000 -0.2655 -0.0334 0.0595 0.6758 -0.9672 -0.2915
7.3000 -0.4049 -0.0475 0.0917 0.6830 -1.1320 -0.4490
7.2000 -0.5415 -0.0636 0.1270 0.6861 -1.2909 -0.6048
7.1000 -0.6576 -0.0819 0.1716 0.6854 -1.4326 -0.7472
7.0000 -0.7537 -0.1027 0.2163 0.6821 -1.5492 -0.8671
6.9000 -0.8168 -0.1263 0.2615 0.6790 -1.6309 -0.9519
6.8000 -0.8338 -0.1530 0.3070 0.6763 -1.6639 -0.9876
6.7000 -0.8069 -0.1833 0.3515 0.6787 -1.6536 -0.9750
6.6000 -0.7219 -0.2176 0.3768 0.6886 -1.5695 -0.8809
6.5000 -0.5173 -0.2563 0.3972 0.7017 -1.3596 -0.6579
6.4000 -0.2014 -0.3001 0.4066 0.7236 -1.0311 -0.3076
6.3000 0.2595 -0.3496 0.4000 0.7552 -0.5458 0.2095
6.2000 0.8905 -0.4055 0.3754 0.7983 0.1226 0.9209
6.1000 1.6942 -0.4685 0.3338 0.8611 0.9680 1.8292
6.0000 2.5879 -0.5396 0.2872 0.9559 1.8846 2.8406
5.9000 3.3950 -0.6197 0.2594 1.1084 2.6472 3.7556
5.8000 3.9770 -0.7101 0.2632 1.3145 3.1097 4.4242
5.7000 4.3070 -0.8120 0.3243 1.5658 3.2293 4.7951
5.6000 4.4702 -0.9268 0.4265 1.8487 3.1221 4.9708
5.5000 4.5337 -1.0560 0.5840 2.1495 2.8566 5.0061
5.4000 4.5381 -1.2016 0.7878 2.4660 2.4862 4.9522
5.3000 4.4743 -1.3653 1.0260 2.7966 2.0173 4.8139
5.2000 4.3584 -1.5493 1.2954 3.1397 1.4728 4.6126
5.1000 4.2076 -1.7560 1.5928 3.4931 0.8781 4.3712
5.0000 4.0009 -1.9879 1.9214 3.8595 0.2083 4.0677
4.9000 3.7519 -2.2476 2.2709 4.2324 -0.5035 3.7289
4.8000 3.4626 -2.5378 2.6614 4.6167 -1.2773 3.3393
4.7000 3.1227 -2.8611 3.0698 5.0056 -2.0912 2.9144
4.6000 2.7366 -3.2201 3.5020 5.4039 -2.9488 2.4551
4.5000 2.2894 -3.6168 3.9700 5.8127 -3.8763 1.9363
4.4000 1.7972 -4.0521 4.4648 6.2248 -4.8402 1.3846
4.3000 1.2479 -4.5256 4.9883 6.6434 -5.8581 0.7853
4.2000 0.6351 -5.0342 5.5365 7.0683 -6.9354 0.1330
4.1000 -0.0263 -5.5709 6.1198 7.5004 -8.0754 -0.5750
4.0000 -0.7198 -6.1225 6.7339 7.9371 -9.2681 -1.3310
3.9000 -1.4284 -6.6664 7.3843 8.3790 -10.5250 -2.1460
3.8000 -2.1234 -7.1655 8.0470 8.8226 -11.8272 -3.0046
3.7000 -2.7364 -7.5612 8.7472 9.2707 -13.1929 -3.9222
3.6000 -3.1649 -7.7615 9.4623 9.7192 -14.5847 -4.8654
3.5000 -3.2919 -7.6246 10.1935 10.1696 -16.0302 -5.8606
3.4000 -2.8962 -6.9321 10.9505 10.6199 -17.5342 -6.9143
3.3000 -1.6267 -5.3483 11.7130 11.0702 -19.0613 -7.9911
3.2000 1.0225 -2.3568 12.4940 11.5201 -20.6344 -9.1144
3.1000 5.8647 2.8406 13.2790 11.9654 -22.2199 -10.2545
3.0000 14.1139 11.4841 14.0742 12.4104 -23.8544 -11.4440
2.9000 27.7296 25.5165 14.8685 12.8522 -25.5072 -12.6550
2.8000 49.7905 48.0099 15.6644 13.2900 -27.1734 -13.8833
2.7000 85.1923 83.8761 16.4517 13.7201 -28.8551 -15.1350
2.6000 141.8852 141.0701 17.2361 14.1452 -30.5658 -16.4206
2.5000 232.9498 232.6633 18.0152 14.5623 -32.2903 -17.7281
2.4000 380.2112 380.4915 18.7770 14.9709 -34.0277 -19.0567
2.3000 620.8387 621.7077 19.5348 15.3694 -35.7726 -20.4032
2.2000 1019.3371 1020.8452 20.2705 15.7546 -37.5325 -21.7779
2.1000 1690.4466 1692.6352 20.9967 16.1294 -39.3141 -23.1847
2.0000 2843.5335 2846.4362 21.7136 16.4880 -41.1035 -24.6154
1.9000 4872.0741 4875.7452 22.4134 16.8331 -42.9166 -26.0835
1.8000 8540.8339 8545.3156 23.1034 17.1607 -44.7461 -27.5854
1.7000 15393.4842 15398.8333 23.7848 17.4722 -46.6061 -29.1339
1.6000 28683.7857 28690.0423 24.4571 17.7620 -48.4776 -30.7156
1.5000 55615.0707 55622.2988 25.1234 18.0328 -50.3907 -32.3578
1.4000 113049.0654 113057.3190 25.7668 18.2772 -52.3094 -34.0323
1.3000 243031.0106 243040.3415 26.3999 18.4991 -54.2749 -35.7758
