# 0-dist(Ang),1-dGtot,2-dGvac,3-dGele,4-dGdis,5-dGcav,6-dGvdw(kT)
13.5000 0.0000 0.0000 0.0000 0.0000 0.0000 0.0000
13.4000 -0.0023 0.0000 -0.0044 -0.0008 0.0029 0.0021
13.3000 0.0072 0.0000 -0.0233 -0.0007 0.0312 0.0305
13.2000 0.0209 0.0000 -0.0161 -0.0039 0.0408 0.0370
13.1000 0.0622 0.0000 -0.0089 -0.0064 0.0775 0.0711
13.0000 0.0907 0.0001 -0.0514 -0.0015 0.1435 0.1420
12.9000 0.1213 0.0001 -0.0677 0.0005 0.1883 0.1888
12.8000 0.1740 0.0001 -0.0799 0.0001 0.2537 0.2538
12.7000 0.2099 -0.0000 -0.0918 0.0024 0.2992 0.3016
12.6000 0.2478 0.0000 -0.1046 0.0052 0.3472 0.3524
12.5000 0.2895 -0.0000 -0.1228 0.0119 0.4005 0.4123
12.4000 0.3191 -0.0002 -0.1397 0.0136 0.4453 0.4590
12.3000 0.3361 -0.0003 -0.1608 0.0202 0.4771 0.4973
12.2000 0.3553 -0.0006 -0.1604 0.0230 0.4933 0.5163
12.1000 0.3863 -0.0008 -0.1350 0.0243 0.4978 0.5221
12.0000 0.3957 -0.0014 -0.1259 0.0284 0.4946 0.5229
11.9000 0.3691 -0.0078 -0.1066 0.0341 0.4494 0.4835
11.8000 0.3459 -0.0104 -0.0955 0.0395 0.4124 0.4519
11.7000 0.3144 -0.0149 -0.0851 0.0444 0.3700 0.4145
11.6000 0.2794 -0.0133 -0.0825 0.0492 0.3260 0.3751
11.5000 0.2460 -0.0093 -0.0741 0.0543 0.2750 0.3294
11.4000 0.2053 -0.0053 -0.0546 0.0563 0.2090 0.2652
11.3000 0.1491 -0.0003 -0.0421 0.0605 0.1310 0.1915
11.2000 0.0773 0.0022 -0.0695 0.0668 0.0778 0.1446
11.1000 0.0121 0.0036 -0.0743 0.0723 0.0104 0.0828
11.0000 -0.0499 0.0046 -0.1044 0.0789 -0.0291 0.0498
10.9000 -0.1099 0.0047 -0.1294 0.0840 -0.0693 0.0148
10.8000 -0.1701 0.0059 -0.1522 0.0870 -0.1109 -0.0239
10.7000 -0.2207 0.0067 -0.1760 0.0884 -0.1399 -0.0515
10.6000 -0.2760 0.0074 -0.2169 0.0919 -0.1584 -0.0665
10.5000 -0.3197 0.0088 -0.2602 0.0918 -0.1600 -0.0683
10.4000 -0.3470 0.0099 -0.2956 0.0909 -0.1522 -0.0613
10.3000 -0.3786 0.0114 -0.3275 0.0891 -0.1517 -0.0626
10.2000 -0.3939 0.0127 -0.3667 0.0848 -0.1248 -0.0401
10.1000 -0.4120 0.0141 -0.3973 0.0830 -0.1119 -0.0290
10.0000 -0.4000 0.0155 -0.4380 0.0772 -0.0548 0.0224
9.9000 -0.3875 0.0168 -0.4524 0.0681 -0.0202 0.0479
9.8000 -0.3398 0.0179 -0.4410 0.0578 0.0255 0.0832
9.7000 -0.2724 0.0187 -0.4425 0.0484 0.1028 0.1512
9.6000 -0.1886 0.0192 -0.4357 0.0398 0.1879 0.2277
9.5000 -0.0894 0.0194 -0.4241 0.0359 0.2793 0.3151
9.4000 0.0355 0.0196 -0.4003 0.0296 0.3864 0.4161
9.3000 0.1845 0.0195 -0.3547 0.0268 0.4928 0.5196
9.2000 0.3749 0.0192 -0.2970 0.0290 0.6236 0.6525
9.1000 0.5790 0.0188 -0.2349 0.0334 0.7615 0.7949
9.0000 0.8247 0.0181 -0.1689 0.0444 0.9310 0.9754
8.9000 1.0661 0.0173 -0.1104 0.0566 1.1025 1.1591
8.8000 1.2777 0.0162 -0.0513 0.0751 1.2377 1.3128
8.7000 1.4476 0.0149 -0.0119 0.1009 1.3436 1.4445
8.6000 1.5777 0.0133 0.0504 0.1298 1.3841 1.5140
8.5000 1.6325 0.0114 0.0941 0.1638 1.3630 1.5268
8.4000 1.6059 0.0091 0.1391 0.1992 1.2583 1.4575
8.3000 1.5618 0.0065 0.1398 0.2363 1.1789 1.4152
8.2000 1.4556 0.0035 0.1490 0.2735 1.0293 1.3028
8.1000 1.3140 0.0001 0.1728 0.3085 0.8325 1.1410
8.0000 1.1642 -0.0039 0.1814 0.3398 0.6468 0.9865
7.9000 0.9935 -0.0085 0.1845 0.3696 0.4477 0.8173
7.8000 0.8099 -0.0138 0.1944 0.3956 0.2334 0.6290
7.7000 0.6098 -0.0197 0.2068 0.4176 0.0049 0.4226
7.6000 0.4001 -0.0266 0.2267 0.4311 -0.2313 0.1998
7.5000 0.1937 -0.0343 0.2524 0.4406 -0.4651 -0.0245
7.4000 -0.0150 -0.0431 0.3147 0.4429 -0.7296 -0.2867
7.3000 -0.2177 -0.0531 0.3423 0.4424 -0.9494 -0.5070
7.2000 -0.4220 -0.0644 0.3884 0.4372 -1.1834 -0.7463
7.1000 -0.6069 -0.0771 0.4263 0.4300 -1.3862 -0.9563
7.0000 -0.7777 -0.0916 0.4887 0.4230 -1.5979 -1.1749
6.9000 -0.9254 -0.1079 0.5546 0.4152 -1.7872 -1.3721
6.8000 -1.0346 -0.1264 0.6257 0.4107 -1.9446 -1.5339
6.7000 -1.1296 -0.1472 0.7004 0.4123 -2.0951 -1.6828
6.6000 -1.1315 -0.1708 0.7675 0.4221 -2.1505 -1.7284
6.5000 -1.0638 -0.1973 0.8178 0.4431 -2.1274 -1.6844
6.4000 -0.8963 -0.2272 0.8775 0.4770 -2.0237 -1.5467
6.3000 -0.5876 -0.2610 0.9251 0.5243 -1.7761 -1.2518
6.2000 -0.1327 -0.2991 0.9662 0.5841 -1.3842 -0.8000
6.1000 0.5009 -0.3421 1.0025 0.6579 -0.8176 -0.1597
6.0000 1.3507 -0.3906 1.0117 0.7453 -0.0159 0.7294
5.9000 2.4146 -0.4453 0.9956 0.8513 1.0128 1.8641
5.8000 3.6379 -0.5070 0.9716 0.9780 2.1951 3.1732
5.7000 4.7200 -0.5766 0.9957 1.1362 3.1646 4.3008
5.6000 5.2824 -0.6551 1.1760 1.3239 3.4375 4.7614
5.5000 5.4462 -0.7436 1.4648 1.5339 3.1909 4.7248
5.4000 5.4744 -0.8434 1.7999 1.7566 2.7611 4.5177
5.3000 5.4557 -0.9559 2.1475 1.9903 2.2736 4.2639
5.2000 5.3825 -1.0826 2.4977 2.2355 1.7317 3.9672
5.1000 5.2603 -1.2253 2.8736 2.4923 1.1193 3.6116
5.0000 5.1252 -1.3857 3.2506 2.7578 0.5021 3.2599
4.9000 4.9255 -1.5660 3.6414 3.0343 -0.1845 2.8497
4.8000 4.6910 -1.7680 4.0561 3.3157 -0.9131 2.4027
4.7000 4.4125 -1.9941 4.4839 3.6078 -1.6853 1.9225
4.6000 4.0745 -2.2460 4.9263 3.9049 -2.5111 1.3939
4.5000 3.7054 -2.5257 5.3956 4.2059 -3.3708 0.8351
4.4000 3.2673 -2.8342 5.8636 4.5154 -4.2777 0.2377
4.3000 2.7526 -3.1717 6.3409 4.8302 -5.2470 -0.4168
4.2000 2.1734 -3.5368 6.8450 5.1496 -6.2846 -1.1350
4.1000 1.5303 -3.9250 7.3521 5.4704 -7.3673 -1.8969
4.0000 0.8571 -4.3279 7.8590 5.7945 -8.4685 -2.6740
3.9000 0.1307 -4.7301 8.3681 6.1210 -9.6283 -3.5073
3.8000 -0.5961 -5.1054 8.8811 6.4463 -10.8183 -4.3720
3.7000 -1.3123 -5.4116 9.4017 6.7719 -12.0744 -5.3025
3.6000 -1.9144 -5.5807 9.9143 7.0985 -13.3465 -6.2481
3.5000 -2.3107 -5.5050 10.4322 7.4251 -14.6631 -7.2380
3.4000 -2.3353 -5.0144 10.9394 7.7491 -16.0095 -8.2603
3.3000 -1.7021 -3.8390 11.4505 8.0713 -17.3849 -9.3137
3.2000 0.0140 -1.5497 11.9575 8.3921 -18.7860 -10.3939
3.1000 3.5089 2.5438 12.4423 8.7094 -20.1867 -11.4773
3.0000 9.8948 9.5651 12.9358 9.0237 -21.6300 -12.6063
2.9000 21.0377 21.3742 13.4373 9.3317 -23.1058 -13.7741
2.8000 40.0820 41.1132 13.9316 9.6374 -24.6004 -14.9630
2.7000 72.4549 74.2192 14.4232 9.9363 -26.1239 -16.1876
2.6000 127.8581 130.3708 14.9103 10.2283 -27.6514 -17.4231
2.5000 224.0589 227.3561 15.4051 10.5138 -29.2161 -18.7024
2.4000 394.9115 399.0386 15.8898 10.7925 -30.8096 -20.0171
2.3000 707.3587 712.3547 16.3783 11.0615 -32.4358 -21.3743
2.2000 1298.8291 1304.7210 16.8569 11.3217 -34.0705 -22.7488
2.1000 2461.6415 2468.4633 17.3375 11.5700 -35.7290 -24.1591
2.0000 4836.4459 4844.2251 17.8174 11.8043 -37.4008 -25.5965
1.9000 9853.6942 9862.4713 18.3071 12.0273 -39.1107 -27.0834
1.8000 20710.4781 20720.3103 18.7787 12.2343 -40.8454 -28.6111
1.7000 44370.2816 44381.2228 19.2552 12.4246 -42.6095 -30.1849
1.6000 95060.9475 95073.0157 19.7243 12.5975 -44.3788 -31.7814
1.5000 198779.9959 198793.2944 20.1916 12.7527 -46.1850 -33.4323
1.4000 396776.9298 396791.4275 20.6665 12.8853 -48.0262 -35.1410
1.3000 754406.3749 754422.2645 21.1256 12.9980 -49.8893 -36.8913
