# 0-dist(Ang),1-dGtot,2-dGvac,3-dGele,4-dGdis,5-dGcav,6-dGvdw(kT)
13.5000 0.0000 0.0000 0.0000 0.0000 0.0000 0.0000
13.4000 0.0210 0.0000 -0.0110 -0.0017 0.0337 0.0320
13.3000 0.0479 0.0000 0.0033 -0.0006 0.0451 0.0446
13.2000 0.0889 0.0001 0.0021 -0.0022 0.0890 0.0868
13.1000 0.1173 0.0004 -0.0015 0.0004 0.1181 0.1185
13.0000 0.1594 0.0006 -0.0077 0.0016 0.1649 0.1666
12.9000 0.2114 0.0009 -0.0236 0.0050 0.2291 0.2341
12.8000 0.2741 0.0011 -0.0412 0.0090 0.3053 0.3143
12.7000 0.3218 0.0017 -0.0513 0.0109 0.3606 0.3716
12.6000 0.3783 0.0023 -0.0486 0.0152 0.4095 0.4248
12.5000 0.4122 0.0028 -0.0509 0.0202 0.4401 0.4603
12.4000 0.4446 0.0035 -0.0535 0.0252 0.4695 0.4947
12.3000 0.4671 0.0043 -0.0606 0.0326 0.4908 0.5234
12.2000 0.4722 0.0052 -0.0631 0.0413 0.4889 0.5302
12.1000 0.4844 0.0055 -0.0647 0.0471 0.4963 0.5434
12.0000 0.4766 0.0034 -0.0637 0.0570 0.4798 0.5368
11.9000 0.4453 -0.0013 -0.0552 0.0683 0.4333 0.5017
11.8000 0.3976 -0.0044 -0.0496 0.0804 0.3711 0.4515
11.7000 0.3299 -0.0108 -0.0403 0.0894 0.2916 0.3809
11.6000 0.2756 -0.0133 -0.0357 0.0977 0.2268 0.3245
11.5000 0.1840 -0.0182 -0.0130 0.1063 0.1089 0.2151
11.4000 0.1187 -0.0193 -0.0072 0.1138 0.0313 0.1451
11.3000 0.0536 -0.0170 -0.0121 0.1214 -0.0389 0.0825
11.2000 -0.0151 -0.0125 -0.0174 0.1267 -0.1121 0.0146
11.1000 -0.1091 -0.0076 -0.0213 0.1330 -0.2134 -0.0804
11.0000 -0.1708 -0.0042 -0.0200 0.1377 -0.2846 -0.1468
10.9000 -0.2516 0.0008 -0.0386 0.1415 -0.3555 -0.2140
10.8000 -0.3266 0.0059 -0.0683 0.1472 -0.4115 -0.2644
10.7000 -0.3798 0.0118 -0.1025 0.1499 -0.4392 -0.2893
10.6000 -0.4217 0.0173 -0.1047 0.1479 -0.4824 -0.3346
10.5000 -0.4750 0.0219 -0.1144 0.1429 -0.5257 -0.3827
10.4000 -0.5201 0.0256 -0.1382 0.1355 -0.5431 -0.4077
10.3000 -0.5403 0.0282 -0.1790 0.1310 -0.5209 -0.3899
10.2000 -0.5466 0.0300 -0.1936 0.1272 -0.5105 -0.3833
10.1000 -0.5402 0.0312 -0.2020 0.1201 -0.4899 -0.3698
10.0000 -0.5155 0.0318 -0.2218 0.1133 -0.4392 -0.3260
9.9000 -0.4665 0.0320 -0.2435 0.1027 -0.3582 -0.2555
9.8000 -0.3966 0.0321 -0.2388 0.0912 -0.2816 -0.1904
9.7000 -0.2777 0.0320 -0.2443 0.0829 -0.1489 -0.0660
9.6000 -0.1344 0.0316 -0.2492 0.0760 0.0066 0.0826
9.5000 0.0176 0.0310 -0.2180 0.0704 0.1337 0.2041
9.4000 0.1760 0.0302 -0.2120 0.0696 0.2876 0.3572
9.3000 0.3887 0.0291 -0.1895 0.0709 0.4777 0.5486
9.2000 0.6206 0.0279 -0.1666 0.0814 0.6775 0.7589
9.1000 0.8789 0.0263 -0.1331 0.0945 0.8908 0.9853
9.0000 1.1451 0.0245 -0.1343 0.1147 1.1398 1.2544
8.9000 1.4092 0.0225 -0.1167 0.1400 1.3629 1.5029
8.8000 1.6352 0.0201 -0.0895 0.1722 1.5320 1.7042
8.7000 1.8017 0.0173 -0.0899 0.2087 1.6651 1.8738
8.6000 1.8671 0.0141 -0.0616 0.2544 1.6598 1.9142
8.5000 1.8795 0.0105 -0.0215 0.2980 1.5921 1.8901
8.4000 1.8023 0.0064 -0.0073 0.3432 1.4597 1.8029
8.3000 1.7098 0.0017 -0.0099 0.3925 1.3252 1.7177
8.2000 1.5522 -0.0036 0.0302 0.4396 1.0858 1.5254
8.1000 1.3749 -0.0097 0.0648 0.4856 0.8338 1.3195
8.0000 1.1722 -0.0165 0.1121 0.5270 0.5494 1.0764
7.9000 0.9474 -0.0243 0.1579 0.5647 0.2489 0.8136
7.8000 0.6883 -0.0330 0.1655 0.5970 -0.0414 0.5556
7.7000 0.4336 -0.0429 0.1819 0.6231 -0.3286 0.2944
7.6000 0.1671 -0.0540 0.1989 0.6450 -0.6232 0.0219
7.5000 -0.1075 -0.0665 0.2177 0.6620 -0.9210 -0.2589
7.4000 -0.3546 -0.0806 0.2580 0.6708 -1.2030 -0.5321
7.3000 -0.6045 -0.0965 0.2792 0.6750 -1.4624 -0.7874
7.2000 -0.8303 -0.1144 0.2928 0.6780 -1.6869 -1.0089
7.1000 -1.0289 -0.1344 0.3010 0.6787 -1.8743 -1.1957
7.0000 -1.1966 -0.1570 0.3203 0.6759 -2.0360 -1.3601
6.9000 -1.3138 -0.1824 0.3260 0.6791 -2.1369 -1.4578
6.8000 -1.3874 -0.2109 0.3350 0.6882 -2.2000 -1.5119
6.7000 -1.3714 -0.2429 0.3127 0.7037 -2.1452 -1.4415
6.6000 -1.2876 -0.2790 0.2604 0.7350 -2.0045 -1.2694
6.5000 -1.0615 -0.3194 0.2168 0.7784 -1.7375 -0.9591
6.4000 -0.6804 -0.3649 0.1186 0.8379 -1.2721 -0.4342
6.3000 -0.1373 -0.4161 0.0060 0.9163 -0.6436 0.2727
6.2000 0.6263 -0.4735 -0.1315 1.0093 0.2217 1.2311
6.1000 1.6536 -0.5381 -0.3234 1.1180 1.3970 2.5150
6.0000 2.9313 -0.6108 -0.5142 1.2472 2.8090 4.0562
5.9000 4.3407 -0.6925 -0.7297 1.4087 4.3541 5.7628
5.8000 5.4230 -0.7843 -0.8300 1.6272 5.4099 7.0371
5.7000 6.0905 -0.8877 -0.8005 1.8897 5.8888 7.7785
5.6000 6.3888 -1.0038 -0.6473 2.1867 5.8530 8.0397
5.5000 6.5158 -1.1345 -0.3843 2.4999 5.5345 8.0343
5.4000 6.4743 -1.2814 -0.0424 2.8296 4.9683 7.7979
5.3000 6.3441 -1.4464 0.3487 3.1684 4.2733 7.4417
5.2000 6.1518 -1.6318 0.7650 3.5238 3.4947 7.0185
5.1000 5.9171 -1.8399 1.1874 3.8922 2.6774 6.5695
5.0000 5.6528 -2.0732 1.6406 4.2673 1.8180 6.0853
4.9000 5.3453 -2.3343 2.1311 4.6540 0.8946 5.5485
4.8000 4.9902 -2.6260 2.6612 5.0476 -0.0926 4.9549
4.7000 4.5916 -2.9511 3.2125 5.4507 -1.1208 4.3299
4.6000 4.1217 -3.3118 3.7967 5.8624 -2.2259 3.6365
4.5000 3.5917 -3.7101 4.4261 6.2804 -3.4050 2.8754
4.4000 3.0214 -4.1469 5.0619 6.7037 -4.5976 2.1061
4.3000 2.3816 -4.6216 5.7504 7.1291 -5.8766 1.2526
4.2000 1.6514 -5.1304 6.4610 7.5605 -7.2399 0.3206
4.1000 0.8745 -5.6656 7.1996 7.9950 -8.6548 -0.6597
4.0000 0.0543 -6.2124 7.9837 8.4332 -10.1503 -1.7171
3.9000 -0.7721 -6.7457 8.7829 8.8725 -11.6820 -2.8095
3.8000 -1.5803 -7.2243 9.6186 9.3134 -13.2884 -3.9749
3.7000 -2.2957 -7.5827 10.4815 9.7560 -14.9510 -5.1950
3.6000 -2.8245 -7.7178 11.3658 10.1968 -16.6698 -6.4729
3.5000 -2.9925 -7.4692 12.2509 10.6388 -18.4136 -7.7748
3.4000 -2.5481 -6.5880 13.1667 11.0774 -20.2049 -9.1274
3.3000 -1.1320 -4.6881 14.0885 11.5121 -22.0453 -10.5332
3.2000 1.8906 -1.1682 15.0281 11.9440 -23.9140 -11.9700
3.1000 7.4437 4.9127 15.9687 12.3714 -25.8099 -13.4385
3.0000 17.0017 15.0403 16.9130 12.7932 -27.7457 -14.9525
2.9000 32.9695 31.5843 17.8542 13.2080 -29.6779 -16.4699
2.8000 59.1341 58.3734 18.7907 13.6194 -31.6503 -18.0309
2.7000 101.8030 101.6868 19.7383 14.0203 -33.6432 -19.6229
2.6000 171.4406 172.0036 20.6625 14.4146 -35.6410 -21.2264
2.5000 285.8727 287.1617 21.5690 14.7988 -37.6576 -22.8588
2.4000 476.1445 478.2056 22.4744 15.1743 -39.7104 -24.5362
2.3000 797.6188 800.5062 23.3595 15.5362 -41.7837 -26.2475
2.2000 1351.7657 1355.5212 24.2330 15.8853 -43.8743 -27.9889
2.1000 2330.0031 2334.6790 25.0984 16.2189 -45.9937 -29.7748
2.0000 4105.1991 4110.8533 25.9345 16.5347 -48.1236 -31.5889
1.9000 7429.4372 7436.1501 26.7602 16.8348 -50.3072 -33.4725
1.8000 13879.7515 13887.5974 27.5736 17.1148 -52.5323 -35.4175
1.7000 26911.0604 26920.1221 28.3688 17.3689 -54.7954 -37.4265
1.6000 54480.7006 54491.0516 29.1355 17.6011 -57.0790 -39.4779
1.5000 115980.2733 115991.9954 29.9148 17.8052 -59.4223 -41.6172
1.4000 261730.1445 261743.3546 30.6599 17.9814 -61.8207 -43.8393
1.3000 631715.7539 631730.5930 31.4096 18.1244 -64.2818 -46.1574
