# 0-dist(Ang),1-dGtot,2-dGvac,3-dGele,4-dGdis,5-dGcav,6-dGvdw(kT)
13.5000 0.0000 0.0000 0.0000 0.0000 0.0000 0.0000
13.4000 0.0061 0.0000 0.1295 0.0018 -0.1252 -0.1234
13.3000 0.0129 0.0000 0.2724 0.0061 -0.2657 -0.2596
13.2000 0.0234 0.0000 0.4127 0.0066 -0.3959 -0.3893
13.1000 0.0200 0.0000 0.5403 0.0098 -0.5300 -0.5203
13.0000 0.0223 0.0000 0.6805 0.0143 -0.6726 -0.6582
12.9000 0.0192 0.0000 0.8084 0.0155 -0.8047 -0.7892
12.8000 0.0254 0.0006 0.9425 0.0192 -0.9370 -0.9179
12.7000 0.0317 0.0010 1.0592 0.0198 -1.0484 -1.0286
12.6000 0.0355 0.0028 1.1754 0.0217 -1.1644 -1.1427
12.5000 0.0367 0.0080 1.2967 0.0238 -1.2919 -1.2681
12.4000 0.0369 0.0158 1.4121 0.0259 -1.4170 -1.3911
12.3000 0.0427 0.0238 1.5380 0.0285 -1.5476 -1.5191
12.2000 0.0488 0.0345 1.6609 0.0334 -1.6799 -1.6466
12.1000 0.0478 0.0501 1.7718 0.0379 -1.8120 -1.7741
12.0000 0.0500 0.0641 1.8853 0.0419 -1.9412 -1.8993
11.9000 0.0489 0.0798 1.9943 0.0474 -2.0726 -2.0252
11.8000 0.0498 0.1048 2.1006 0.0563 -2.2118 -2.1555
11.7000 0.0415 0.1265 2.2003 0.0619 -2.3473 -2.2853
11.6000 0.0298 0.1605 2.2774 0.0685 -2.4765 -2.4080
11.5000 0.0346 0.2014 2.3828 0.0728 -2.6223 -2.5495
11.4000 0.0201 0.2343 2.4689 0.0765 -2.7594 -2.6829
11.3000 -0.0058 0.2606 2.5333 0.0815 -2.8812 -2.7996
11.2000 -0.0268 0.2956 2.6240 0.0858 -3.0322 -2.9464
11.1000 -0.0556 0.3392 2.6856 0.0915 -3.1720 -3.0805
11.0000 -0.0799 0.3891 2.7720 0.0961 -3.3371 -3.2410
10.9000 -0.1138 0.4430 2.8473 0.0982 -3.5023 -3.4041
10.8000 -0.1422 0.5018 2.9012 0.1007 -3.6461 -3.5453
10.7000 -0.1643 0.5757 2.9496 0.1031 -3.7929 -3.6898
10.6000 -0.1919 0.6585 2.9940 0.1042 -3.9489 -3.8446
10.5000 -0.2073 0.7478 3.0375 0.1044 -4.0971 -3.9928
10.4000 -0.2245 0.8444 3.0683 0.1026 -4.2401 -4.1375
10.3000 -0.2516 0.9489 3.0836 0.1032 -4.3876 -4.2844
10.2000 -0.2552 1.0614 3.1140 0.1004 -4.5312 -4.4308
10.1000 -0.2599 1.1862 3.1122 0.0960 -4.6546 -4.5586
10.0000 -0.2515 1.3212 3.1154 0.0923 -4.7807 -4.6884
9.9000 -0.2405 1.4659 3.0976 0.0878 -4.8919 -4.8042
9.8000 -0.2184 1.6217 3.0808 0.0809 -5.0020 -4.9211
9.7000 -0.1970 1.7873 3.0479 0.0814 -5.1138 -5.0324
9.6000 -0.1467 1.9634 3.0128 0.0795 -5.2027 -5.1232
9.5000 -0.0845 2.1497 2.9592 0.0801 -5.2737 -5.1936
9.4000 -0.0229 2.3460 2.8854 0.0829 -5.3374 -5.2544
9.3000 0.0497 2.5532 2.8273 0.0902 -5.4211 -5.3309
9.2000 0.1275 2.7711 2.7496 0.0976 -5.4910 -5.3934
9.1000 0.2053 3.0000 2.6604 0.1095 -5.5648 -5.4552
9.0000 0.2761 3.2403 2.5724 0.1243 -5.6611 -5.5368
8.9000 0.3313 3.4923 2.4715 0.1407 -5.7734 -5.6327
8.8000 0.3755 3.7561 2.3613 0.1621 -5.9041 -5.7420
8.7000 0.3949 4.0320 2.2125 0.1848 -6.0346 -5.8497
8.6000 0.3872 4.3200 2.0548 0.2109 -6.1986 -5.9877
8.5000 0.3631 4.6209 1.8818 0.2398 -6.3796 -6.1397
8.4000 0.3256 4.9344 1.6757 0.2658 -6.5504 -6.2846
8.3000 0.2718 5.2605 1.4721 0.2901 -6.7510 -6.4609
8.2000 0.2101 5.5998 1.2588 0.3107 -6.9593 -6.6486
8.1000 0.1322 5.9537 1.0119 0.3288 -7.1625 -6.8336
8.0000 0.0352 6.3220 0.7563 0.3464 -7.3896 -7.0432
7.9000 -0.0659 6.7046 0.4723 0.3614 -7.6044 -7.2429
7.8000 -0.1870 7.1020 0.1723 0.3717 -7.8331 -7.4614
7.7000 -0.3232 7.5144 -0.1593 0.3774 -8.0557 -7.6783
7.6000 -0.4629 7.9421 -0.5304 0.3813 -8.2558 -7.8746
7.5000 -0.6072 8.3854 -0.9013 0.3812 -8.4724 -8.0912
7.4000 -0.7540 8.8444 -1.2916 0.3794 -8.6862 -8.3068
7.3000 -0.8902 9.3192 -1.6962 0.3711 -8.8842 -8.5131
7.2000 -1.0196 9.8099 -2.1203 0.3616 -9.0708 -8.7092
7.1000 -1.1400 10.3165 -2.5711 0.3533 -9.2387 -8.8854
7.0000 -1.2396 10.8395 -3.0109 0.3431 -9.4112 -9.0681
6.9000 -1.3019 11.3789 -3.4801 0.3321 -9.5329 -9.2008
6.8000 -1.3190 11.9351 -3.9515 0.3222 -9.6249 -9.3027
6.7000 -1.2778 12.5083 -4.4181 0.3142 -9.6822 -9.3680
6.6000 -1.1593 13.0986 -4.8784 0.3105 -9.6899 -9.3793
6.5000 -0.9811 13.7062 -5.3423 0.3167 -9.6615 -9.3448
6.4000 -0.7072 14.3318 -5.8331 0.3268 -9.5325 -9.2057
6.3000 -0.3143 14.9755 -6.2928 0.3434 -9.3402 -8.9968
6.2000 0.1800 15.6372 -6.7533 0.3704 -9.0742 -8.7038
6.1000 0.6977 16.3170 -7.2249 0.4160 -8.8104 -8.3944
6.0000 1.1595 17.0152 -7.7060 0.4948 -8.6445 -8.1497
5.9000 1.4929 17.7316 -8.1998 0.6073 -8.6462 -8.0390
5.8000 1.6517 18.4663 -8.7746 0.7541 -8.7940 -8.0399
5.7000 1.6903 19.2191 -9.4125 0.9230 -9.0393 -8.1163
5.6000 1.6186 19.9898 -10.1230 1.1093 -9.3575 -8.2483
5.5000 1.4547 20.7784 -10.8997 1.3121 -9.7362 -8.4241
5.4000 1.2448 21.5841 -11.7357 1.5206 -10.1243 -8.6038
5.3000 0.9724 22.4069 -12.6344 1.7356 -10.5358 -8.8002
5.2000 0.6534 23.2462 -13.5855 1.9543 -10.9617 -9.0074
5.1000 0.2661 24.1013 -14.6059 2.1766 -11.4061 -9.2295
5.0000 -0.1543 24.9716 -15.6838 2.3989 -11.8412 -9.4423
4.9000 -0.6340 25.8566 -16.8360 2.6210 -12.2758 -9.6548
4.8000 -1.1583 26.7555 -18.0393 2.8397 -12.7143 -9.8746
4.7000 -1.7270 27.6678 -19.3119 3.0573 -13.1404 -10.0831
4.6000 -2.3391 28.5931 -20.6389 3.2674 -13.5607 -10.2934
4.5000 -3.0108 29.5314 -22.0504 3.4754 -13.9672 -10.4918
4.4000 -3.6992 30.4832 -23.4821 3.6786 -14.3789 -10.7004
4.3000 -4.4298 31.4503 -24.9709 3.8757 -14.7848 -10.9091
4.2000 -5.1901 32.4359 -26.5037 4.0693 -15.1916 -11.1223
4.1000 -5.9735 33.4461 -28.0814 4.2586 -15.5968 -11.3382
4.0000 -6.7459 34.4908 -29.6798 4.4445 -16.0014 -11.5568
3.9000 -7.4882 35.5860 -31.2740 4.6257 -16.4258 -11.8001
3.8000 -8.1807 36.7577 -32.8862 4.8049 -16.8570 -12.0520
3.7000 -8.7619 38.0456 -34.4938 4.9814 -17.2950 -12.3136
3.6000 -9.1764 39.5118 -36.0810 5.1571 -17.7642 -12.6071
3.5000 -9.2894 41.2512 -37.6036 5.3280 -18.2651 -12.9371
3.4000 -8.9716 43.4103 -39.0763 5.4981 -18.8037 -13.3055
3.3000 -7.9912 46.2135 -40.4991 5.6687 -19.3741 -13.7055
3.2000 -5.9918 50.0064 -41.8649 5.8369 -19.9701 -14.1332
3.1000 -2.4346 55.3233 -43.1674 6.0042 -20.5947 -14.5905
3.0000 3.5066 62.9937 -44.4282 6.1718 -21.2305 -15.0588
2.9000 13.1406 74.3135 -45.6090 6.3387 -21.9026 -15.5640
2.8000 28.4808 91.3232 -46.7532 6.5064 -22.5956 -16.0892
2.7000 52.7793 117.2616 -47.8723 6.6738 -23.2838 -16.6100
2.6000 91.2465 157.3208 -48.9511 6.8397 -23.9630 -17.1233
2.5000 152.2934 219.9134 -49.9767 7.0033 -24.6467 -17.6434
2.4000 249.7075 318.8458 -51.0089 7.1665 -25.2959 -18.1294
2.3000 406.5072 477.1138 -51.9964 7.3277 -25.9379 -18.6102
2.2000 661.6751 733.7120 -53.0042 7.4866 -26.5193 -19.0327
2.1000 1082.8469 1156.2549 -53.9949 7.6429 -27.0557 -19.4127
2.0000 1790.5673 1865.3289 -55.0094 7.7996 -27.5514 -19.7518
1.9000 3007.7324 3083.8266 -56.0605 7.9525 -27.9857 -20.0332
1.8000 5165.2293 5242.6284 -57.1469 8.1008 -28.3516 -20.2508
1.7000 9142.4346 9221.1198 -58.2931 8.2443 -28.6357 -20.3914
1.6000 16850.4716 16930.4446 -59.4799 8.3812 -28.8722 -20.4910
1.5000 32741.0783 32822.3187 -60.7095 8.5113 -29.0427 -20.5314
1.4000 67980.2170 68062.7214 -62.0001 8.6338 -29.1321 -20.4983
1.3000 152858.1249 152941.8698 -63.3264 8.7459 -29.1582 -20.4123
