# 0-dist(Ang),1-dGtot,2-dGvac,3-dGele,4-dGdis,5-dGcav,6-dGvdw(kT)
13.5000 0.0000 0.0000 0.0000 0.0000 0.0000 0.0000
13.4100 -0.0099 0.0000 0.3228 -0.0096 -0.3232 -0.3328
13.3100 -0.0185 0.0000 0.6280 -0.0202 -0.6263 -0.6465
13.2100 -0.0147 0.0000 0.9264 -0.0305 -0.9107 -0.9411
13.1100 -0.0219 0.0000 1.2217 -0.0382 -1.2054 -1.2436
13.0100 -0.0135 0.0000 1.5319 -0.0466 -1.4988 -1.5454
12.9100 -0.0069 0.0000 1.8705 -0.0570 -1.8204 -1.8774
12.8100 0.0043 0.0000 2.2045 -0.0675 -2.1327 -2.2002
12.7100 0.0141 0.0000 2.5310 -0.0772 -2.4398 -2.5170
12.6100 0.0269 0.0000 2.8438 -0.0891 -2.7277 -2.8169
12.5100 0.0345 0.0000 3.1574 -0.0982 -3.0246 -3.1228
12.4100 0.0488 0.0000 3.4859 -0.1076 -3.3294 -3.4370
12.3100 0.0731 0.0000 3.7979 -0.1181 -3.6066 -3.7247
12.2100 0.0890 0.0000 4.1569 -0.1301 -3.9377 -4.0678
12.1100 0.1053 0.0000 4.4824 -0.1395 -4.2373 -4.3769
12.0100 0.1322 0.0000 4.8349 -0.1503 -4.5523 -4.7025
11.9100 0.1429 -0.0022 5.1691 -0.1594 -4.8645 -5.0239
11.8100 0.1486 -0.0065 5.5005 -0.1696 -5.1754 -5.3450
11.7100 0.1620 -0.0126 5.8195 -0.1808 -5.4638 -5.6446
11.6100 0.1507 -0.0195 6.1129 -0.1920 -5.7504 -5.9424
11.5100 0.1410 -0.0276 6.4350 -0.2020 -6.0640 -6.2660
11.4100 0.1409 -0.0372 6.7531 -0.2128 -6.3620 -6.5748
11.3100 0.1304 -0.0481 7.0646 -0.2252 -6.6607 -6.8858
11.2100 0.1170 -0.0601 7.4073 -0.2365 -6.9935 -7.2300
11.1100 0.1052 -0.0731 7.7364 -0.2452 -7.3128 -7.5580
11.0100 0.0829 -0.0873 8.0761 -0.2573 -7.6487 -7.9060
10.9100 0.0632 -0.0991 8.4255 -0.2709 -7.9923 -8.2633
10.8100 0.0477 -0.1095 8.7591 -0.2832 -8.3189 -8.6021
10.7100 0.0407 -0.1178 9.0866 -0.2930 -8.6352 -8.9282
10.6100 0.0484 -0.1256 9.4165 -0.3053 -8.9374 -9.2426
10.5100 0.0580 -0.1329 9.7533 -0.3176 -9.2449 -9.5626
10.4100 0.0831 -0.1398 10.0770 -0.3271 -9.5272 -9.8543
10.3100 0.1032 -0.1462 10.3983 -0.3383 -9.8106 -10.1489
10.2100 0.1310 -0.1530 10.7317 -0.3489 -10.0990 -10.4479
10.1100 0.1608 -0.1607 11.0444 -0.3592 -10.3638 -10.7230
10.0100 0.2039 -0.1696 11.3567 -0.3678 -10.6155 -10.9833
9.9100 0.2324 -0.1797 11.6630 -0.3773 -10.8736 -11.2509
9.8100 0.2715 -0.1900 11.9935 -0.3856 -11.1464 -11.5320
9.7100 0.3077 -0.2031 12.3523 -0.3954 -11.4463 -11.8416
9.6100 0.3303 -0.2163 12.6914 -0.4061 -11.7388 -12.1449
9.5100 0.3409 -0.2296 13.0138 -0.4139 -12.0294 -12.4433
9.4100 0.3476 -0.2432 13.3599 -0.4229 -12.3463 -12.7692
9.3100 0.3577 -0.2562 13.6919 -0.4322 -12.6455 -13.0777
9.2100 0.3790 -0.2689 14.0472 -0.4428 -12.9562 -13.3990
9.1100 0.3722 -0.2815 14.3754 -0.4515 -13.2700 -13.7215
9.0100 0.3588 -0.2930 14.6882 -0.4590 -13.5772 -14.0362
8.9100 0.3423 -0.3066 15.0148 -0.4680 -13.8977 -14.3657
8.8100 0.3206 -0.3152 15.3147 -0.4785 -14.2003 -14.6788
8.7100 0.3151 -0.3190 15.6387 -0.4862 -14.5183 -15.0045
8.6100 0.2838 -0.3236 15.9502 -0.4949 -14.8479 -15.3428
8.5100 0.2773 -0.3286 16.2739 -0.5044 -15.1639 -15.6683
8.4100 0.2559 -0.3340 16.6077 -0.5126 -15.5055 -16.0181
8.3100 0.2568 -0.3397 16.9399 -0.5217 -15.8219 -16.3437
8.2100 0.2543 -0.3455 17.2344 -0.5304 -16.1045 -16.6349
8.1100 0.2424 -0.3530 17.5267 -0.5394 -16.3922 -16.9316
8.0100 0.2395 -0.3612 17.8493 -0.5487 -16.7002 -17.2489
7.9100 0.2541 -0.3699 18.1706 -0.5597 -16.9874 -17.5471
7.8100 0.2501 -0.3809 18.4984 -0.5717 -17.2961 -17.8678
7.7100 0.2422 -0.3942 18.8363 -0.5844 -17.6159 -18.2003
7.6100 0.2200 -0.4089 19.2021 -0.5971 -17.9764 -18.5735
7.5100 0.1965 -0.4212 19.5776 -0.6088 -18.3513 -18.9602
7.4100 0.1811 -0.4337 19.9366 -0.6241 -18.6979 -19.3220
7.3100 0.1495 -0.4469 20.3125 -0.6388 -19.0776 -19.7164
7.2100 0.1358 -0.4597 20.6723 -0.6536 -19.4235 -20.0771
7.1100 0.1119 -0.4731 21.0401 -0.6673 -19.7881 -20.4553
7.0100 0.0782 -0.4870 21.4057 -0.6809 -20.1598 -20.8407
6.9100 0.0453 -0.5019 21.7869 -0.6932 -20.5469 -21.2402
6.8100 0.0488 -0.5205 22.1409 -0.7050 -20.8666 -21.5716
6.7100 0.0595 -0.5386 22.4705 -0.7176 -21.1548 -21.8723
6.6100 0.1150 -0.5586 22.8261 -0.7264 -21.4263 -22.1526
6.5100 0.1866 -0.5805 23.1447 -0.7337 -21.6441 -22.3777
6.4100 0.2729 -0.6047 23.4599 -0.7388 -21.8438 -22.5826
6.3100 0.3813 -0.6320 23.7752 -0.7424 -22.0197 -22.7621
6.2100 0.4713 -0.6622 24.0550 -0.7428 -22.1788 -22.9215
6.1100 0.5870 -0.6957 24.3484 -0.7414 -22.3244 -23.0659
6.0100 0.6934 -0.7330 24.5952 -0.7353 -22.4340 -23.1692
5.9100 0.8261 -0.7734 24.8559 -0.7302 -22.5264 -23.2566
5.8100 0.9282 -0.8178 25.1074 -0.7224 -22.6393 -23.3617
5.7100 1.0338 -0.8666 25.3906 -0.7138 -22.7766 -23.4904
5.6100 1.1123 -0.9194 25.6466 -0.7050 -22.9101 -23.6151
5.5100 1.1867 -0.9739 25.9150 -0.6962 -23.0585 -23.7546
5.4100 1.2445 -1.0315 26.2463 -0.6896 -23.2809 -23.9705
5.3100 1.2707 -1.0927 26.6007 -0.6844 -23.5530 -24.2375
5.2100 1.2383 -1.1583 26.9971 -0.6811 -23.9196 -24.6007
5.1100 1.1371 -1.2286 27.4096 -0.6808 -24.3633 -25.0441
5.0100 0.9958 -1.3038 27.8507 -0.6802 -24.8708 -25.5511
4.9100 0.7672 -1.3845 28.2929 -0.6796 -25.4616 -26.1412
4.8100 0.5022 -1.4709 28.7289 -0.6811 -26.0746 -26.7558
4.7100 0.2021 -1.5640 29.1201 -0.6790 -26.6752 -27.3542
4.6100 -0.0663 -1.6648 29.4751 -0.6767 -27.1999 -27.8766
4.5100 -0.2377 -1.7743 29.8085 -0.6730 -27.5991 -28.2721
4.4100 -0.3500 -1.8932 30.1234 -0.6696 -27.9106 -28.5802
4.3100 -0.3926 -2.0227 30.4868 -0.6672 -28.1895 -28.8567
4.2100 -0.3923 -2.1638 30.8728 -0.6609 -28.4404 -29.1013
4.1100 -0.3673 -2.3176 31.3243 -0.6552 -28.7187 -29.3739
4.0100 -0.2960 -2.4855 31.8324 -0.6486 -28.9943 -29.6429
3.9100 -0.2155 -2.6690 32.4327 -0.6388 -29.3403 -29.9791
3.8100 -0.0718 -2.8700 33.0921 -0.6244 -29.6696 -30.2940
3.7100 0.1057 -3.0903 33.8263 -0.6076 -30.0225 -30.6301
3.6100 0.3346 -3.3323 34.6431 -0.5878 -30.3882 -30.9760
3.5100 0.6302 -3.5986 35.5324 -0.5637 -30.7401 -31.3038
3.4100 0.9591 -3.8920 36.5290 -0.5311 -31.1469 -31.6780
3.3100 1.3280 -4.2158 37.5963 -0.4939 -31.5587 -32.0525
3.2100 1.7017 -4.5739 38.7655 -0.4497 -32.0403 -32.4900
3.1100 2.0674 -4.9702 39.9734 -0.3958 -32.5402 -32.9359
3.0100 2.3412 -5.4094 41.2063 -0.3352 -33.1206 -33.4558
2.9100 2.5747 -5.8967 42.4849 -0.2682 -33.7453 -34.0135
2.8100 2.7000 -6.4375 43.7869 -0.1884 -34.4610 -34.6494
2.7100 2.7191 -7.0376 45.0858 -0.1026 -35.2265 -35.3291
2.6100 2.5798 -7.7022 46.3935 -0.0056 -36.1058 -36.1113
2.5100 2.2873 -8.4361 47.6634 0.1036 -37.0434 -36.9398
2.4100 1.8881 -9.2412 48.9409 0.2188 -38.0300 -37.8112
2.3100 1.3623 -10.1147 50.2053 0.3418 -39.0698 -38.7280
2.2100 0.6896 -11.0432 51.4139 0.4736 -40.1544 -39.6808
2.1100 -0.0673 -11.9941 52.5750 0.6130 -41.2609 -40.6479
2.0100 -0.8373 -12.8962 53.6978 0.7584 -42.3970 -41.6387
1.9100 -1.4632 -13.6038 54.8025 0.9119 -43.5735 -42.6616
1.8100 -1.6700 -13.8200 55.8343 1.0728 -44.7568 -43.6840
1.7100 -0.8383 -12.9320 56.8552 1.2410 -46.0023 -44.7613
1.6100 2.3842 -9.6347 57.8684 1.4161 -47.2656 -45.8495
1.5100 10.8788 -1.0136 58.8383 1.5960 -48.5418 -46.9457
1.4100 31.5875 19.8489 59.7763 1.7822 -49.8197 -48.0375
1.3100 82.1885 70.6428 60.7060 1.9756 -51.1357 -49.1601
