# 0-dist(Ang),1-dGtot,2-dGvac,3-dGele,4-dGdis,5-dGcav,6-dGvdw(kT)
13.5000 0.0000 0.0000 0.0000 0.0000 0.0000 0.0000
13.4000 0.0081 0.0000 0.0045 0.0004 0.0032 0.0036
13.3000 0.0140 0.0000 0.0116 -0.0004 0.0029 0.0024
13.2000 0.0291 0.0000 0.0119 -0.0009 0.0181 0.0172
13.1000 0.0438 0.0000 0.0097 -0.0009 0.0351 0.0341
13.0000 0.0625 0.0001 0.0116 0.0007 0.0501 0.0508
12.9000 0.0795 0.0002 0.0073 0.0010 0.0710 0.0720
12.8000 0.0970 0.0001 0.0081 0.0016 0.0871 0.0887
12.7000 0.1117 0.0002 0.0096 0.0022 0.0997 0.1018
12.6000 0.1234 0.0003 0.0139 0.0037 0.1054 0.1092
12.5000 0.1238 0.0003 0.0134 0.0060 0.1041 0.1101
12.4000 0.1279 0.0001 0.0151 0.0066 0.1061 0.1127
12.3000 0.1404 -0.0000 0.0173 0.0078 0.1152 0.1230
12.2000 0.1403 -0.0004 0.0202 0.0121 0.1084 0.1205
12.1000 0.1505 -0.0007 0.0309 0.0133 0.1070 0.1202
12.0000 0.1407 -0.0032 0.0412 0.0183 0.0843 0.1026
11.9000 0.1338 -0.0080 0.0551 0.0209 0.0657 0.0866
11.8000 0.1226 -0.0110 0.0641 0.0242 0.0452 0.0694
11.7000 0.1115 -0.0151 0.0760 0.0290 0.0215 0.0506
11.6000 0.1002 -0.0141 0.0820 0.0336 -0.0014 0.0322
11.5000 0.0972 -0.0127 0.0896 0.0378 -0.0176 0.0202
11.4000 0.0914 -0.0116 0.0982 0.0448 -0.0401 0.0047
11.3000 0.0731 -0.0111 0.1091 0.0492 -0.0743 -0.0251
11.2000 0.0608 -0.0103 0.1144 0.0531 -0.0966 -0.0435
11.1000 0.0493 -0.0093 0.1235 0.0586 -0.1235 -0.0650
11.0000 0.0255 -0.0086 0.1344 0.0634 -0.1638 -0.1004
10.9000 0.0134 -0.0081 0.1354 0.0680 -0.1819 -0.1140
10.8000 0.0028 -0.0076 0.1352 0.0712 -0.1962 -0.1250
10.7000 -0.0078 -0.0079 0.1358 0.0747 -0.2104 -0.1357
10.6000 -0.0114 -0.0088 0.1390 0.0767 -0.2183 -0.1416
10.5000 -0.0177 -0.0104 0.1354 0.0775 -0.2202 -0.1427
10.4000 -0.0271 -0.0114 0.1323 0.0791 -0.2272 -0.1481
10.3000 -0.0222 -0.0124 0.1329 0.0795 -0.2223 -0.1428
10.2000 -0.0186 -0.0134 0.1328 0.0785 -0.2165 -0.1379
10.1000 -0.0202 -0.0145 0.1328 0.0782 -0.2167 -0.1385
10.0000 -0.0071 -0.0156 0.1391 0.0741 -0.2046 -0.1306
9.9000 0.0153 -0.0167 0.1502 0.0712 -0.1894 -0.1182
9.8000 0.0340 -0.0175 0.1590 0.0681 -0.1756 -0.1075
9.7000 0.0615 -0.0183 0.1629 0.0648 -0.1480 -0.0832
9.6000 0.0958 -0.0191 0.1772 0.0639 -0.1261 -0.0622
9.5000 0.1304 -0.0200 0.1949 0.0648 -0.1094 -0.0446
9.4000 0.1866 -0.0211 0.2083 0.0665 -0.0671 -0.0006
9.3000 0.2376 -0.0223 0.2250 0.0716 -0.0367 0.0350
9.2000 0.2962 -0.0238 0.2368 0.0766 0.0066 0.0832
9.1000 0.3711 -0.0257 0.2511 0.0827 0.0630 0.1457
9.0000 0.4355 -0.0279 0.2628 0.0942 0.1064 0.2006
8.9000 0.4968 -0.0305 0.2758 0.1059 0.1455 0.2514
8.8000 0.5384 -0.0334 0.2909 0.1236 0.1574 0.2810
8.7000 0.5578 -0.0368 0.3067 0.1429 0.1451 0.2880
8.6000 0.5656 -0.0407 0.3250 0.1665 0.1150 0.2815
8.5000 0.5623 -0.0450 0.3398 0.1902 0.0774 0.2676
8.4000 0.5333 -0.0497 0.3551 0.2152 0.0127 0.2280
8.3000 0.4981 -0.0548 0.3769 0.2405 -0.0644 0.1761
8.2000 0.4433 -0.0605 0.3962 0.2648 -0.1571 0.1077
8.1000 0.3853 -0.0667 0.4197 0.2880 -0.2554 0.0325
8.0000 0.3305 -0.0736 0.4423 0.3076 -0.3458 -0.0382
7.9000 0.2435 -0.0811 0.4747 0.3291 -0.4790 -0.1500
7.8000 0.1600 -0.0895 0.5055 0.3456 -0.6016 -0.2561
7.7000 0.0643 -0.0987 0.5393 0.3613 -0.7377 -0.3764
7.6000 -0.0446 -0.1088 0.5786 0.3735 -0.8879 -0.5144
7.5000 -0.1420 -0.1200 0.6166 0.3821 -1.0206 -0.6386
7.4000 -0.2398 -0.1324 0.6590 0.3871 -1.1535 -0.7664
7.3000 -0.3317 -0.1461 0.6963 0.3902 -1.2721 -0.8819
7.2000 -0.4276 -0.1613 0.7287 0.3893 -1.3845 -0.9952
7.1000 -0.5089 -0.1781 0.7610 0.3886 -1.4806 -1.0921
7.0000 -0.5610 -0.1967 0.7987 0.3881 -1.5513 -1.1632
6.9000 -0.5955 -0.2173 0.8299 0.3902 -1.5985 -1.2083
6.8000 -0.5934 -0.2401 0.8538 0.3953 -1.6025 -1.2071
6.7000 -0.5350 -0.2655 0.8798 0.4017 -1.5511 -1.1494
6.6000 -0.4257 -0.2937 0.8921 0.4137 -1.4378 -1.0242
6.5000 -0.2386 -0.3250 0.8932 0.4292 -1.2359 -0.8068
6.4000 0.0347 -0.3599 0.8877 0.4502 -0.9433 -0.4931
6.3000 0.4026 -0.3987 0.8744 0.4810 -0.5540 -0.0731
6.2000 0.8664 -0.4419 0.8592 0.5259 -0.0767 0.4491
6.1000 1.4226 -0.4901 0.8363 0.5847 0.4918 1.0764
6.0000 1.9799 -0.5438 0.8301 0.6718 1.0218 1.6936
5.9000 2.4014 -0.6037 0.8646 0.7960 1.3445 2.1405
5.8000 2.6526 -0.6706 0.9484 0.9544 1.4204 2.3748
5.7000 2.7374 -0.7453 1.0709 1.1374 1.2744 2.4118
5.6000 2.7519 -0.8287 1.2129 1.3352 1.0324 2.3677
5.5000 2.7187 -0.9219 1.3731 1.5454 0.7221 2.2674
5.4000 2.6536 -1.0260 1.5440 1.7676 0.3679 2.1354
5.3000 2.5572 -1.1422 1.7292 1.9999 -0.0298 1.9701
5.2000 2.4306 -1.2720 1.9229 2.2405 -0.4610 1.7795
5.1000 2.2677 -1.4166 2.1286 2.4893 -0.9337 1.5556
5.0000 2.0837 -1.5777 2.3439 2.7456 -1.4282 1.3174
4.9000 1.8547 -1.7567 2.5691 3.0118 -1.9696 1.0422
4.8000 1.5986 -1.9551 2.8079 3.2845 -2.5388 0.7457
4.7000 1.3031 -2.1741 3.0553 3.5647 -3.1430 0.4217
4.6000 0.9688 -2.4147 3.3128 3.8519 -3.7814 0.0705
4.5000 0.5899 -2.6770 3.5772 4.1455 -4.4560 -0.3105
4.4000 0.1711 -2.9603 3.8471 4.4422 -5.1579 -0.7157
4.3000 -0.2915 -3.2618 4.1190 4.7444 -5.8931 -1.1487
4.2000 -0.7850 -3.5761 4.3954 5.0507 -6.6550 -1.6043
4.1000 -1.3012 -3.8936 4.6779 5.3598 -7.4453 -2.0856
4.0000 -1.8286 -4.1980 4.9609 5.6708 -8.2625 -2.5916
3.9000 -2.3355 -4.4631 5.2407 5.9859 -9.0990 -3.1131
3.8000 -2.7839 -4.6477 5.5225 6.3020 -9.9606 -3.6585
3.7000 -3.1033 -4.6873 5.8049 6.6170 -10.8378 -4.2208
3.6000 -3.2085 -4.4821 6.0823 6.9332 -11.7415 -4.8083
3.5000 -2.9319 -3.8779 6.3604 7.2501 -12.6641 -5.4140
3.4000 -2.0358 -2.6361 6.6357 7.5675 -13.6024 -6.0349
3.3000 -0.1546 -0.3857 6.9070 7.8840 -14.5595 -6.6755
3.2000 3.2906 3.4538 7.1792 8.1982 -15.5402 -7.3420
3.1000 9.2218 9.7993 7.4478 8.5109 -16.5358 -8.0250
3.0000 19.1107 20.1155 7.7159 8.8203 -17.5407 -8.7204
2.9000 35.3118 36.7747 7.9798 9.1277 -18.5701 -9.4425
2.8000 61.7401 63.6831 8.2448 9.4312 -19.6186 -10.1874
2.7000 104.9424 107.3913 8.5107 9.7313 -20.6906 -10.9592
2.6000 176.1446 179.1214 8.7729 10.0267 -21.7760 -11.7493
2.5000 295.0200 298.5498 9.0318 10.3153 -22.8766 -12.5613
2.4000 496.9555 501.0616 9.2926 10.5981 -23.9965 -13.3984
2.3000 847.3008 852.0078 9.5529 10.8748 -25.1344 -14.2595
2.2000 1470.0041 1475.3399 9.8118 11.1421 -26.2891 -15.1469
2.1000 2606.2120 2612.2066 10.0677 11.4027 -27.4640 -16.0613
2.0000 4735.4136 4742.0915 10.3206 11.6511 -28.6471 -16.9960
1.9000 8826.6351 8834.0273 10.5783 11.8905 -29.8602 -17.9697
1.8000 16856.6828 16864.8320 10.8345 12.1196 -31.1029 -18.9833
1.7000 32877.5142 32886.4659 11.0906 12.3350 -32.3593 -20.0243
1.6000 65275.3994 65285.1727 11.3434 12.5362 -33.6414 -21.1052
1.5000 132044.1263 132054.8063 11.5960 12.7217 -34.9555 -22.2338
1.4000 275257.2027 275268.8034 11.8456 12.8928 -36.2896 -23.3968
1.3000 606556.5032 606569.0421 12.0950 13.0462 -37.6436 -24.5975
