# 0-dist(Ang),1-dGtot,2-dGvac,3-dGele,4-dGdis,5-dGcav,6-dGvdw(kT)
13.5000 0.0000 0.0000 0.0000 0.0000 0.0000 0.0000
13.4000 0.0049 0.0000 -0.3016 -0.0009 0.3072 0.3063
13.3000 0.0119 0.0000 -0.6110 -0.0018 0.6245 0.6227
13.2000 0.0251 0.0000 -0.9162 -0.0002 0.9415 0.9412
13.1000 0.0313 0.0000 -1.2207 -0.0009 1.2529 1.2520
13.0000 0.0285 0.0000 -1.5281 0.0005 1.5559 1.5564
12.9000 0.0356 0.0000 -1.8291 0.0013 1.8632 1.8645
12.8000 0.0256 0.0000 -2.1088 0.0018 2.1324 2.1342
12.7000 0.0463 0.0000 -2.4168 0.0034 2.4595 2.4630
12.6000 0.0615 0.0000 -2.7019 0.0034 2.7599 2.7633
12.5000 0.0041 0.0000 -2.9975 0.0026 3.0788 3.0814
12.4000 0.1136 0.0000 -3.2886 0.0024 3.3997 3.4022
12.3000 0.1311 0.0000 -3.5751 0.0017 3.7044 3.7061
12.2000 0.1726 0.0000 -3.8714 0.0029 4.0410 4.0439
12.1000 0.2016 0.0000 -4.1810 0.0044 4.3780 4.3825
12.0000 0.2032 -0.0000 -4.4735 0.0048 4.6718 4.6766
11.9000 0.2197 -0.0025 -4.7871 0.0062 5.0029 5.0092
11.8000 0.2249 -0.0070 -5.0630 0.0057 5.2890 5.2947
11.7000 0.2449 -0.0130 -5.3636 0.0045 5.6168 5.6213
11.6000 0.2489 -0.0200 -5.6777 0.0050 5.9414 5.9465
11.5000 0.2498 -0.0282 -5.9795 0.0034 6.2539 6.2573
11.4000 0.2362 -0.0379 -6.2905 0.0024 6.5621 6.5644
11.3000 0.2323 -0.0493 -6.5841 0.0028 6.8627 6.8655
11.2000 0.2181 -0.0617 -6.8724 0.0014 7.1507 7.1521
11.1000 0.2023 -0.0753 -7.1569 0.0018 7.4325 7.4344
11.0000 0.2029 -0.0901 -7.4464 0.0010 7.7386 7.7396
10.9000 0.1855 -0.1043 -7.7433 0.0012 8.0318 8.0330
10.8000 0.1733 -0.1184 -8.0180 -0.0003 8.3099 8.3096
10.7000 0.1667 -0.1311 -8.3190 -0.0004 8.6173 8.6169
10.6000 0.1740 -0.1442 -8.6095 -0.0004 8.9281 8.9277
10.5000 0.1763 -0.1576 -8.8983 0.0012 9.2310 9.2322
10.4000 0.1890 -0.1717 -9.1493 0.0028 9.5072 9.5099
10.3000 0.2017 -0.1876 -9.4116 0.0037 9.7972 9.8009
10.2000 0.2298 -0.2059 -9.6871 0.0044 10.1184 10.1228
10.1000 0.2475 -0.2270 -9.9722 0.0048 10.4418 10.4467
10.0000 0.2174 -0.2495 -10.2281 0.0051 10.7699 10.7749
9.9000 0.3296 -0.2732 -10.4854 0.0041 11.0842 11.0883
9.8000 0.3604 -0.2980 -10.7418 0.0040 11.3961 11.4001
9.7000 0.4055 -0.3253 -11.0179 0.0032 11.7455 11.7487
9.6000 0.4194 -0.3533 -11.2678 0.0043 12.0363 12.0405
9.5000 0.4392 -0.3820 -11.5286 0.0063 12.3436 12.3499
9.4000 0.4709 -0.4113 -11.7887 0.0078 12.6633 12.6711
9.3000 0.4702 -0.4407 -12.0558 0.0088 12.9580 12.9668
9.2000 0.4731 -0.4703 -12.3259 0.0112 13.2581 13.2693
9.1000 0.4648 -0.4985 -12.6025 0.0139 13.5520 13.5659
9.0000 0.4435 -0.5250 -12.8764 0.0171 13.8278 13.8449
8.9000 0.4163 -0.5527 -13.1588 0.0191 14.1087 14.1278
8.8000 0.3921 -0.5766 -13.4368 0.0207 14.3848 14.4055
8.7000 0.3430 -0.5972 -13.7168 0.0245 14.6326 14.6571
8.6000 0.3230 -0.6185 -13.9990 0.0273 14.9133 14.9406
8.5000 0.3139 -0.6405 -14.2847 0.0302 15.2090 15.2393
8.4000 0.2922 -0.6648 -14.5668 0.0310 15.4929 15.5239
8.3000 0.2941 -0.6900 -14.8377 0.0328 15.7890 15.8218
8.2000 0.2892 -0.7162 -15.1170 0.0349 16.0876 16.1225
8.1000 0.2985 -0.7448 -15.3673 0.0350 16.3756 16.4106
8.0000 0.2974 -0.7767 -15.6273 0.0362 16.6653 16.7015
7.9000 0.3146 -0.8113 -15.8764 0.0370 16.9654 17.0024
7.8000 0.3247 -0.8507 -16.1227 0.0369 17.2614 17.2983
7.7000 0.3427 -0.8948 -16.3639 0.0352 17.5664 17.6016
7.6000 0.3589 -0.9427 -16.6208 0.0336 17.8889 17.9226
7.5000 0.2828 -0.9943 -16.8560 0.0324 18.1808 18.2132
7.4000 0.3775 -1.0491 -17.0796 0.0299 18.4766 18.5065
7.3000 0.3840 -1.1041 -17.2787 0.0282 18.7388 18.7669
7.2000 0.3676 -1.1614 -17.5090 0.0266 19.0116 19.0382
7.1000 0.3505 -1.2204 -17.7126 0.0239 19.2598 19.2837
7.0000 0.3130 -1.2800 -17.9118 0.0247 19.4805 19.5052
6.9000 0.2788 -1.3421 -18.1185 0.0229 19.7168 19.7398
6.8000 0.2634 -1.4046 -18.3313 0.0228 19.9769 19.9997
6.7000 0.2453 -1.4663 -18.5569 0.0252 20.2436 20.2688
6.6000 0.2607 -1.5298 -18.7668 0.0296 20.5279 20.5575
6.5000 0.2723 -1.5964 -18.9993 0.0344 20.8340 20.8684
6.4000 0.2870 -1.6677 -19.2555 0.0424 21.1681 21.2105
6.3000 0.3245 -1.7436 -19.5207 0.0520 21.5372 21.5892
6.2000 0.3750 -1.8248 -19.7977 0.0624 21.9354 21.9979
6.1000 0.4530 -1.9121 -20.0699 0.0752 22.3603 22.4355
6.0000 0.5334 -2.0072 -20.3674 0.0882 22.8204 22.9085
5.9000 0.6052 -2.1109 -20.6763 0.1036 23.2890 23.3926
5.8000 0.7059 -2.2215 -20.9840 0.1195 23.7920 23.9116
5.7000 0.8146 -2.3372 -21.3091 0.1352 24.3259 24.4611
5.6000 0.9368 -2.4592 -21.5983 0.1516 24.8430 24.9946
5.5000 0.9991 -2.5880 -21.8764 0.1677 25.3359 25.5037
5.4000 1.1113 -2.7207 -22.1565 0.1831 25.8456 26.0287
5.3000 1.2156 -2.8591 -22.4188 0.1973 26.3365 26.5338
5.2000 1.2780 -3.0037 -22.6394 0.2133 26.7481 26.9614
5.1000 1.2869 -3.1547 -22.8349 0.2243 27.0925 27.3168
5.0000 1.2233 -3.3123 -23.0214 0.2338 27.3636 27.5974
4.9000 1.1332 -3.4770 -23.1576 0.2429 27.5254 27.7683
4.8000 0.9186 -3.6493 -23.2961 0.2516 27.6129 27.8645
4.7000 0.6113 -3.8304 -23.4050 0.2606 27.5866 27.8472
4.6000 0.3113 -4.0218 -23.5398 0.2697 27.6037 27.8734
4.5000 0.0121 -4.2267 -23.6921 0.2797 27.6516 27.9313
4.4000 -0.2405 -4.4467 -23.8368 0.2905 27.7529 28.0434
4.3000 -0.4280 -4.6826 -23.9701 0.3046 27.9206 28.2251
4.2000 -0.5672 -4.9360 -24.0584 0.3189 28.1086 28.4275
4.1000 -0.6688 -5.2083 -24.0859 0.3368 28.2890 28.6258
4.0000 -0.7215 -5.5014 -24.0374 0.3562 28.4614 28.8176
3.9000 -0.7153 -5.8170 -23.9195 0.3803 28.6413 29.0216
3.8000 -0.6552 -6.1576 -23.7031 0.4055 28.8003 29.2058
3.7000 -0.4773 -6.5257 -23.4040 0.4371 29.0156 29.4527
3.6000 -0.2387 -6.9241 -22.9838 0.4712 29.1983 29.6695
3.5000 0.0867 -7.3561 -22.4625 0.5118 29.3939 29.9057
3.4000 0.4889 -7.8254 -21.8245 0.5570 29.5822 30.1392
3.3000 0.9731 -8.3360 -21.0661 0.6098 29.7657 30.3755
3.2000 1.4862 -8.8924 -20.2079 0.6651 29.9217 30.5868
3.1000 2.0274 -9.4999 -19.2190 0.7262 30.0603 30.7865
3.0000 2.6115 -10.1641 -18.1523 0.7955 30.1327 30.9282
2.9000 3.0841 -10.8914 -17.0184 0.8722 30.1218 30.9940
2.8000 3.4355 -11.6884 -15.8022 0.9528 29.9733 30.9261
2.7000 3.5870 -12.5623 -14.5568 1.0455 29.6605 30.7061
2.6000 3.5601 -13.5201 -13.2892 1.1463 29.2230 30.3693
2.5000 3.3192 -14.5682 -12.0087 1.2544 28.6416 29.8960
2.4000 2.8596 -15.7106 -10.7414 1.3728 27.9386 29.3114
2.3000 2.1742 -16.9462 -9.4567 1.5014 27.0757 28.5770
2.2000 1.2954 -18.2640 -8.1999 1.6388 26.1201 27.7590
2.1000 0.2489 -19.6329 -6.9642 1.7834 25.0623 26.8457
2.0000 -0.8429 -20.9826 -5.7596 1.9364 23.9627 25.8991
1.9000 -1.8693 -22.1657 -4.5700 2.0973 22.7689 24.8662
1.8000 -2.4825 -22.8767 -3.4084 2.2653 21.5372 23.8025
1.7000 -2.0250 -22.4778 -2.2591 2.4401 20.2719 22.7119
1.6000 0.8889 -19.5943 -1.1139 2.6187 18.9785 21.5971
1.5000 9.3472 -11.1213 0.0264 2.8053 17.6367 20.4419
1.4000 30.8172 10.3973 1.1676 2.9958 16.2562 19.2520
1.3000 84.6133 64.2666 2.2622 3.1931 14.8913 18.0843
