# 0-dist(Ang),1-dGtot,2-dGvac,3-dGele,4-dGdis,5-dGcav,6-dGvdw(kT)
13.5000 0.0000 0.0000 0.0000 0.0000 0.0000 0.0000
13.4000 0.0043 0.0000 0.0108 0.0007 -0.0072 -0.0065
13.3000 0.0157 0.0000 0.0146 0.0016 -0.0005 0.0011
13.2000 0.0228 0.0000 0.0149 0.0016 0.0064 0.0079
13.1000 0.0244 0.0000 0.0204 0.0030 0.0011 0.0041
13.0000 0.0355 0.0000 0.0211 0.0030 0.0115 0.0145
12.9000 0.0402 0.0001 0.0199 0.0043 0.0159 0.0202
12.8000 0.0492 0.0003 0.0288 0.0068 0.0134 0.0201
12.7000 0.0554 0.0005 0.0265 0.0084 0.0200 0.0284
12.6000 0.0710 0.0008 0.0222 0.0084 0.0396 0.0480
12.5000 0.0897 0.0011 0.0212 0.0086 0.0588 0.0674
12.4000 0.0976 0.0013 0.0238 0.0100 0.0624 0.0725
12.3000 0.1031 0.0016 0.0305 0.0128 0.0583 0.0710
12.2000 0.0988 0.0019 0.0399 0.0148 0.0422 0.0570
12.1000 0.1061 0.0024 0.0458 0.0172 0.0406 0.0578
12.0000 0.1197 0.0022 0.0555 0.0189 0.0431 0.0620
11.9000 0.1199 -0.0017 0.0614 0.0207 0.0394 0.0601
11.8000 0.1150 -0.0039 0.0667 0.0235 0.0287 0.0521
11.7000 0.1041 -0.0053 0.0730 0.0278 0.0086 0.0364
11.6000 0.0890 -0.0077 0.0770 0.0321 -0.0124 0.0197
11.5000 0.0888 -0.0087 0.0767 0.0345 -0.0136 0.0209
11.4000 0.0828 -0.0109 0.0748 0.0363 -0.0173 0.0189
11.3000 0.0758 -0.0120 0.0843 0.0400 -0.0365 0.0034
11.2000 0.0610 -0.0132 0.0932 0.0444 -0.0633 -0.0190
11.1000 0.0516 -0.0141 0.0895 0.0475 -0.0713 -0.0239
11.0000 0.0333 -0.0162 0.0925 0.0526 -0.0956 -0.0431
10.9000 0.0172 -0.0171 0.0994 0.0579 -0.1231 -0.0652
10.8000 0.0099 -0.0173 0.1040 0.0597 -0.1366 -0.0769
10.7000 0.0051 -0.0170 0.1012 0.0632 -0.1425 -0.0793
10.6000 -0.0004 -0.0162 0.0992 0.0634 -0.1469 -0.0835
10.5000 -0.0095 -0.0156 0.0968 0.0638 -0.1546 -0.0908
10.4000 -0.0247 -0.0155 0.1014 0.0665 -0.1773 -0.1108
10.3000 -0.0277 -0.0155 0.1020 0.0677 -0.1821 -0.1144
10.2000 -0.0435 -0.0158 0.1072 0.0673 -0.2023 -0.1351
10.1000 -0.0489 -0.0165 0.1094 0.0660 -0.2080 -0.1420
10.0000 -0.0424 -0.0176 0.1134 0.0629 -0.2014 -0.1385
9.9000 -0.0393 -0.0194 0.1216 0.0613 -0.2029 -0.1416
9.8000 -0.0317 -0.0208 0.1292 0.0609 -0.2011 -0.1403
9.7000 -0.0189 -0.0224 0.1308 0.0568 -0.1843 -0.1275
9.6000 0.0069 -0.0242 0.1390 0.0548 -0.1628 -0.1081
9.5000 0.0395 -0.0263 0.1443 0.0533 -0.1319 -0.0787
9.4000 0.0768 -0.0285 0.1538 0.0540 -0.1026 -0.0486
9.3000 0.1207 -0.0307 0.1595 0.0565 -0.0647 -0.0081
9.2000 0.1747 -0.0328 0.1647 0.0584 -0.0159 0.0425
9.1000 0.2281 -0.0348 0.1713 0.0638 0.0277 0.0915
9.0000 0.2885 -0.0370 0.1792 0.0723 0.0739 0.1462
8.9000 0.3488 -0.0394 0.1882 0.0826 0.1172 0.1998
8.8000 0.3977 -0.0420 0.2024 0.0965 0.1407 0.2372
8.7000 0.4363 -0.0448 0.2195 0.1135 0.1480 0.2615
8.6000 0.4599 -0.0481 0.2286 0.1306 0.1488 0.2794
8.5000 0.4617 -0.0518 0.2387 0.1518 0.1230 0.2748
8.4000 0.4559 -0.0560 0.2524 0.1732 0.0865 0.2596
8.3000 0.4317 -0.0607 0.2665 0.1950 0.0310 0.2260
8.2000 0.3979 -0.0661 0.2761 0.2173 -0.0294 0.1880
8.1000 0.3538 -0.0721 0.2872 0.2381 -0.0993 0.1387
8.0000 0.2877 -0.0787 0.3043 0.2588 -0.1966 0.0622
7.9000 0.2219 -0.0862 0.3193 0.2767 -0.2878 -0.0112
7.8000 0.1402 -0.0944 0.3344 0.2942 -0.3941 -0.0999
7.7000 0.0517 -0.1035 0.3481 0.3086 -0.5015 -0.1929
7.6000 -0.0409 -0.1135 0.3570 0.3208 -0.6052 -0.2844
7.5000 -0.1524 -0.1245 0.3722 0.3334 -0.7334 -0.4000
7.4000 -0.2620 -0.1365 0.3926 0.3418 -0.8597 -0.5179
7.3000 -0.3598 -0.1498 0.4062 0.3456 -0.9616 -0.6161
7.2000 -0.4624 -0.1644 0.4192 0.3504 -1.0674 -0.7170
7.1000 -0.5643 -0.1806 0.4313 0.3528 -1.1676 -0.8148
7.0000 -0.6452 -0.1984 0.4371 0.3538 -1.2375 -0.8837
6.9000 -0.7006 -0.2181 0.4476 0.3527 -1.2826 -0.9299
6.8000 -0.7360 -0.2398 0.4500 0.3553 -1.3012 -0.9459
6.7000 -0.7349 -0.2639 0.4523 0.3573 -1.2804 -0.9231
6.6000 -0.6779 -0.2905 0.4432 0.3621 -1.1924 -0.8303
6.5000 -0.5666 -0.3200 0.4298 0.3717 -1.0479 -0.6762
6.4000 -0.3654 -0.3526 0.4066 0.3823 -0.8016 -0.4193
6.3000 -0.0696 -0.3888 0.3797 0.3983 -0.4587 -0.0604
6.2000 0.3230 -0.4290 0.3441 0.4230 -0.0149 0.4081
6.1000 0.7824 -0.4736 0.3153 0.4639 0.4769 0.9408
6.0000 1.2964 -0.5232 0.3010 0.5267 0.9920 1.5188
5.9000 1.7587 -0.5783 0.3107 0.6160 1.4104 2.0263
5.8000 2.0772 -0.6396 0.3636 0.7352 1.6178 2.3530
5.7000 2.2711 -0.7078 0.4586 0.8800 1.6401 2.5201
5.6000 2.3681 -0.7837 0.5785 1.0424 1.5308 2.5733
5.5000 2.3986 -0.8683 0.7178 1.2204 1.3284 2.5489
5.4000 2.3958 -0.9624 0.8764 1.4097 1.0719 2.4816
5.3000 2.3660 -1.0672 1.0492 1.6111 0.7726 2.3838
5.2000 2.3086 -1.1839 1.2313 1.8221 0.4389 2.2609
5.1000 2.2249 -1.3137 1.4240 2.0415 0.0728 2.1143
5.0000 2.1025 -1.4580 1.6296 2.2718 -0.3413 1.9305
4.9000 1.9488 -1.6180 1.8435 2.5108 -0.7878 1.7230
4.8000 1.7573 -1.7953 2.0755 2.7573 -1.2806 1.4767
4.7000 1.5355 -1.9910 2.3094 3.0104 -1.7937 1.2167
4.6000 1.2765 -2.2062 2.5547 3.2686 -2.3409 0.9277
4.5000 0.9852 -2.4416 2.8094 3.5314 -2.9144 0.6170
4.4000 0.6415 -2.6969 3.0704 3.7998 -3.5321 0.2677
4.3000 0.2525 -2.9710 3.3424 4.0745 -4.1938 -0.1193
4.2000 -0.1647 -3.2606 3.6214 4.3536 -4.8793 -0.5257
4.1000 -0.6069 -3.5597 3.9000 4.6342 -5.5814 -0.9472
4.0000 -1.0753 -3.8580 4.1835 4.9203 -6.3211 -1.4008
3.9000 -1.5433 -4.1384 4.4625 5.2077 -7.0750 -1.8673
3.8000 -1.9908 -4.3737 4.7478 5.4960 -7.8610 -2.3649
3.7000 -2.3608 -4.5215 5.0313 5.7870 -8.6575 -2.8706
3.6000 -2.6006 -4.5165 5.3138 6.0786 -9.4764 -3.3978
3.5000 -2.6150 -4.2582 5.5959 6.3704 -10.3229 -3.9525
3.4000 -2.2392 -3.5931 5.8739 6.6598 -11.1797 -4.5199
3.3000 -1.2345 -2.2857 6.1533 6.9497 -12.0519 -5.1021
3.2000 0.7429 0.0258 6.4310 7.2378 -12.9518 -5.7140
3.1000 4.2699 3.9003 6.7025 7.5250 -13.8579 -6.3329
3.0000 10.2098 10.2065 6.9732 7.8089 -14.7788 -6.9699
2.9000 19.9387 20.3065 7.2428 8.0886 -15.6993 -7.6107
2.8000 35.5953 36.3559 7.5127 8.3663 -16.6397 -8.2734
2.7000 60.6325 61.8050 7.7769 8.6383 -17.5877 -8.9494
2.6000 100.6303 102.2455 8.0415 8.9069 -18.5636 -9.6567
2.5000 164.8081 166.8672 8.3007 9.1690 -19.5287 -10.3597
2.4000 268.4780 271.0088 8.5605 9.4269 -20.5182 -11.0913
2.3000 437.6884 440.7127 8.8219 9.6783 -21.5245 -11.8462
2.2000 717.4870 721.0196 9.0755 9.9214 -22.5295 -12.6081
2.1000 1187.3839 1191.4562 9.3276 10.1584 -23.5582 -13.3998
2.0000 1990.9900 1995.6131 9.5817 10.3847 -24.5895 -14.2048
1.9000 3394.0185 3399.2160 9.8353 10.6020 -25.6348 -15.0327
1.8000 5901.6601 5907.4615 10.0865 10.8110 -26.6990 -15.8879
1.7000 10503.3104 10509.7294 10.3326 11.0067 -27.7583 -16.7516
1.6000 19200.8765 19207.9397 10.5799 11.1885 -28.8317 -17.6432
1.5000 36192.9970 36200.7388 10.8276 11.3596 -29.9288 -18.5692
1.4000 70641.2755 70649.7254 11.0677 11.5184 -31.0367 -19.5183
1.3000 143427.3634 143436.5547 11.3070 11.6618 -32.1626 -20.5007
