# 0-dist(Ang),1-dGtot,2-dGvac,3-dGele,4-dGdis,5-dGcav,6-dGvdw(kT)
13.5000 0.0000 0.0000 0.0000 0.0000 0.0000 0.0000
13.4000 0.0040 0.0000 0.6458 0.0390 -0.6807 -0.6417
13.3000 0.0041 0.0000 1.2949 0.0781 -1.3688 -1.2907
13.2000 0.0004 0.0000 1.9442 0.1183 -2.0620 -1.9437
13.1000 0.0061 0.0000 2.5903 0.1579 -2.7421 -2.5842
13.0000 0.0014 0.0000 3.2376 0.1979 -3.4340 -3.2361
12.9000 0.0116 0.0000 3.8820 0.2370 -4.1073 -3.8703
12.8000 0.0139 -0.0002 4.5227 0.2778 -4.7863 -4.5085
12.7000 0.0294 -0.0007 5.1761 0.3147 -5.4605 -5.1458
12.6000 0.0272 -0.0020 5.8126 0.3548 -6.1380 -5.7832
12.5000 0.0362 -0.0043 6.4590 0.3955 -6.8138 -6.4183
12.4000 0.0421 -0.0071 7.1007 0.4356 -7.4871 -7.0515
12.3000 0.0432 -0.0100 7.7519 0.4744 -8.1730 -7.6986
12.2000 0.0439 -0.0131 8.4013 0.5136 -8.8580 -8.3443
12.1000 0.0344 -0.0170 9.0460 0.5531 -9.5478 -8.9947
12.0000 0.0237 -0.0213 9.6944 0.5955 -10.2449 -9.6494
11.9000 0.0147 -0.0281 10.3320 0.6388 -10.9279 -10.2891
11.8000 0.0026 -0.0344 10.9692 0.6808 -11.6130 -10.9322
11.7000 -0.0112 -0.0407 11.6041 0.7207 -12.2952 -11.5745
11.6000 -0.0246 -0.0481 12.2452 0.7615 -12.9832 -12.2217
11.5000 -0.0557 -0.0567 12.8837 0.8043 -13.6870 -12.8826
11.4000 -0.0795 -0.0657 13.5201 0.8462 -14.3800 -13.5338
11.3000 -0.0958 -0.0726 14.1627 0.8868 -15.0726 -14.1858
11.2000 -0.1163 -0.0798 14.7951 0.9275 -15.7592 -14.8318
11.1000 -0.1288 -0.0864 15.4371 0.9685 -16.4481 -15.4797
11.0000 -0.1449 -0.0926 16.0819 1.0086 -17.1430 -16.1344
10.9000 -0.1646 -0.0984 16.7390 1.0501 -17.8553 -16.8052
10.8000 -0.1761 -0.1040 17.3873 1.0906 -18.5500 -17.4594
10.7000 -0.1905 -0.1100 18.0373 1.1314 -19.2492 -18.1178
10.6000 -0.2152 -0.1140 18.6873 1.1723 -19.9608 -18.7885
10.5000 -0.2294 -0.1184 19.3306 1.2137 -20.6553 -19.4416
10.4000 -0.2360 -0.1225 19.9925 1.2527 -21.3587 -20.1060
10.3000 -0.2394 -0.1267 20.6484 1.2934 -22.0544 -20.7610
10.2000 -0.2570 -0.1309 21.3010 1.3337 -22.7608 -21.4272
10.1000 -0.2762 -0.1344 21.9529 1.3723 -23.4670 -22.0947
10.0000 -0.2830 -0.1374 22.5994 1.4104 -24.1555 -22.7451
9.9000 -0.2889 -0.1409 23.2430 1.4470 -24.8381 -23.3911
9.8000 -0.2879 -0.1436 23.8887 1.4839 -25.5170 -24.0331
9.7000 -0.2832 -0.1461 24.5272 1.5220 -26.1863 -24.6644
9.6000 -0.2810 -0.1490 25.1707 1.5618 -26.8645 -25.3027
9.5000 -0.2712 -0.1528 25.8179 1.6002 -27.5366 -25.9364
9.4000 -0.2447 -0.1561 26.4672 1.6388 -28.1946 -26.5559
9.3000 -0.2170 -0.1616 27.1053 1.6787 -28.8395 -27.1608
9.2000 -0.1875 -0.1693 27.7437 1.7196 -29.4815 -27.7619
9.1000 -0.1525 -0.1792 28.3848 1.7615 -30.1197 -28.3582
9.0000 -0.1172 -0.1903 29.0238 1.8075 -30.7582 -28.9507
8.9000 -0.0768 -0.2012 29.6591 1.8518 -31.3867 -29.5349
8.8000 -0.0447 -0.2151 30.2907 1.8994 -32.0198 -30.1204
8.7000 -0.0212 -0.2282 30.9306 1.9489 -32.6727 -30.7239
8.6000 -0.0087 -0.2412 31.5612 2.0011 -33.3301 -31.3289
8.5000 -0.0048 -0.2563 32.2044 2.0528 -34.0060 -31.9532
8.4000 -0.0144 -0.2718 32.8365 2.1073 -34.6866 -32.5794
8.3000 -0.0336 -0.2882 33.4734 2.1624 -35.3816 -33.2192
8.2000 -0.0605 -0.2974 34.1149 2.2199 -36.0981 -33.8783
8.1000 -0.1013 -0.3025 34.7486 2.2770 -36.8248 -34.5477
8.0000 -0.1585 -0.3051 35.3886 2.3327 -37.5749 -35.2422
7.9000 -0.2217 -0.3080 36.0226 2.3871 -38.3236 -35.9366
7.8000 -0.3071 -0.3121 36.6612 2.4432 -39.0997 -36.6565
7.7000 -0.3964 -0.3173 37.2872 2.4958 -39.8623 -37.3666
7.6000 -0.4974 -0.3250 37.9165 2.5480 -40.6374 -38.0894
7.5000 -0.6133 -0.3339 38.5535 2.5953 -41.4286 -38.8333
7.4000 -0.7359 -0.3445 39.1944 2.6432 -42.2294 -39.5862
7.3000 -0.8600 -0.3596 39.8347 2.6882 -43.0237 -40.3355
7.2000 -0.9920 -0.3807 40.4698 2.7322 -43.8138 -41.0816
7.1000 -1.1213 -0.4070 41.1129 2.7742 -44.6020 -41.8278
7.0000 -1.2431 -0.4357 41.7486 2.8165 -45.3730 -42.5565
6.9000 -1.3501 -0.4681 42.3867 2.8595 -46.1289 -43.2694
6.8000 -1.4308 -0.5038 43.0253 2.9047 -46.8576 -43.9529
6.7000 -1.4697 -0.5431 43.6537 2.9497 -47.5306 -44.5809
6.6000 -1.4564 -0.5863 44.2843 2.9973 -48.1523 -45.1550
6.5000 -1.3709 -0.6339 44.9207 3.0456 -48.7039 -45.6583
6.4000 -1.2106 -0.6861 45.5485 3.0967 -49.1702 -46.0735
6.3000 -0.9670 -0.7436 46.1877 3.1493 -49.5609 -46.4116
6.2000 -0.6597 -0.8068 46.8098 3.2075 -49.8707 -46.6632
6.1000 -0.3223 -0.8763 47.4386 3.2736 -50.1587 -46.8851
6.0000 0.0309 -0.9524 48.0764 3.3487 -50.4421 -47.0934
5.9000 0.3221 -1.0360 48.7085 3.4374 -50.7882 -47.3508
5.8000 0.6046 -1.1277 49.3363 3.5392 -51.1436 -47.6044
5.7000 0.8480 -1.2285 49.9874 3.6548 -51.5660 -47.9112
5.6000 1.0505 -1.3393 50.6426 3.7833 -52.0365 -48.2532
5.5000 1.1550 -1.4614 51.2868 3.9301 -52.6009 -48.6707
5.4000 1.1804 -1.5960 51.9413 4.0934 -53.2588 -49.1654
5.3000 1.1441 -1.7443 52.5998 4.2681 -53.9799 -49.7118
5.2000 1.0350 -1.9079 53.2562 4.4578 -54.7713 -50.3135
5.1000 0.8713 -2.0885 53.9221 4.6599 -55.6223 -50.9625
5.0000 0.6563 -2.2877 54.5739 4.8710 -56.5012 -51.6302
4.9000 0.3959 -2.5075 55.2287 5.0904 -57.4159 -52.3255
4.8000 0.0819 -2.7495 55.8838 5.3196 -58.3722 -53.0526
4.7000 -0.2697 -3.0158 56.5322 5.5550 -59.3413 -53.7863
4.6000 -0.6819 -3.3078 57.1580 5.8011 -60.3334 -54.5323
4.5000 -1.1404 -3.6266 57.7725 6.0530 -61.3394 -55.2864
4.4000 -1.6375 -3.9726 58.3918 6.3090 -62.3660 -56.0570
4.3000 -2.1795 -4.3444 59.0094 6.5716 -63.4165 -56.8449
4.2000 -2.7662 -4.7382 59.6182 6.8407 -64.4874 -57.6467
4.1000 -3.3796 -5.1458 60.2231 7.1144 -65.5718 -58.4574
4.0000 -4.0020 -5.5521 60.8108 7.3916 -66.6528 -59.2612
3.9000 -4.6206 -5.9311 61.4023 7.6749 -67.7673 -60.0924
3.8000 -5.1813 -6.2383 61.9811 7.9614 -68.8860 -60.9246
3.7000 -5.6055 -6.3997 62.5599 8.2508 -70.0169 -61.7661
3.6000 -5.7895 -6.2927 63.1237 8.5449 -71.1659 -62.6210
3.5000 -5.5050 -5.7132 63.6771 8.8394 -72.3086 -63.4693
3.4000 -4.4156 -4.3202 64.2449 9.1372 -73.4778 -64.3407
3.3000 -1.9480 -1.5366 64.8096 9.4369 -74.6581 -65.2212
3.2000 2.8905 3.6276 65.3759 9.7385 -75.8518 -66.1132
3.1000 11.8299 12.9044 65.9552 10.0432 -77.0732 -67.0300
3.0000 27.9644 29.3905 66.5286 10.3469 -78.3022 -67.9553
2.9000 56.9961 58.7723 67.1104 10.6537 -79.5410 -68.8873
2.8000 109.6738 111.8136 67.6962 10.9617 -80.7983 -69.8367
2.7000 207.1235 209.6192 68.3062 11.2684 -82.0708 -70.8024
2.6000 392.4136 395.2684 68.9113 11.5753 -83.3420 -71.7666
2.5000 757.6290 760.8383 69.5445 11.8836 -84.6377 -72.7542
2.4000 1510.1594 1513.7177 70.1867 12.1906 -85.9361 -73.7454
2.3000 3145.6953 3149.5917 70.8517 12.4967 -87.2453 -74.7486
2.2000 6931.5385 6935.7627 71.5276 12.8014 -88.5536 -75.7522
2.1000 16363.1989 16367.7382 72.2242 13.1049 -89.8681 -76.7631
2.0000 41941.5646 41946.3888 72.9467 13.4056 -91.1799 -77.7743
1.9000 118386.6525 118391.7460 73.6750 13.7026 -92.4845 -78.7819
1.8000 373537.5023 373542.8617 74.4199 13.9958 -93.7748 -79.7790
1.7000 1338446.6361 1338452.0296 75.1890 14.2864 -95.0694 -80.7830
1.6000 5537351.0412 5537357.2485 75.9738 14.5717 -96.3521 -81.7804
1.5000 26884511.1199 26884518.7199 76.7792 14.8503 -97.6374 -82.7871
1.4000 154918385.2092 154918391.4058 77.5883 15.1228 -98.9031 -83.7803
1.3000 1050351547.3010 1050351553.6685 78.4130 15.3876 -100.1666 -84.7791
