# 0-dist(Ang),1-dGtot,2-dGvac,3-dGele,4-dGdis,5-dGcav,6-dGvdw(kT)
13.5000 0.0000 0.0000 0.0000 0.0000 0.0000 0.0000
13.4000 0.0033 0.0000 -0.0314 -0.0020 0.0367 0.0347
13.3000 0.0015 0.0000 -0.0490 0.0002 0.0503 0.0505
13.2000 0.0292 0.0000 -0.0370 0.0018 0.0643 0.0662
13.1000 0.0696 0.0001 -0.0409 0.0016 0.1088 0.1104
13.0000 0.1152 0.0004 -0.0497 0.0040 0.1605 0.1645
12.9000 0.1712 0.0007 -0.0399 0.0086 0.2017 0.2103
12.8000 0.2142 0.0012 -0.0320 0.0142 0.2308 0.2449
12.7000 0.2688 0.0017 -0.0646 0.0194 0.3124 0.3317
12.6000 0.3091 0.0022 -0.0613 0.0224 0.3458 0.3682
12.5000 0.3623 0.0026 -0.0762 0.0273 0.4086 0.4359
12.4000 0.4080 0.0034 -0.0875 0.0346 0.4576 0.4922
12.3000 0.4525 0.0041 -0.0889 0.0408 0.4966 0.5373
12.2000 0.4762 0.0049 -0.0888 0.0462 0.5139 0.5601
12.1000 0.4911 0.0056 -0.1008 0.0546 0.5318 0.5864
12.0000 0.4925 0.0047 -0.1172 0.0643 0.5407 0.6050
11.9000 0.4609 -0.0049 -0.1128 0.0727 0.5060 0.5786
11.8000 0.4322 -0.0082 -0.0986 0.0780 0.4610 0.5390
11.7000 0.3795 -0.0116 -0.0738 0.0883 0.3767 0.4650
11.6000 0.3088 -0.0112 -0.0633 0.0996 0.2838 0.3834
11.5000 0.2403 -0.0128 -0.0443 0.1102 0.1873 0.2975
11.4000 0.1811 -0.0122 -0.0448 0.1171 0.1209 0.2381
11.3000 0.1042 -0.0119 -0.0475 0.1273 0.0364 0.1637
11.2000 0.0352 -0.0116 -0.0595 0.1353 -0.0289 0.1064
11.1000 -0.0323 -0.0120 -0.0699 0.1438 -0.0942 0.0496
11.0000 -0.1088 -0.0125 -0.0847 0.1477 -0.1592 -0.0115
10.9000 -0.1606 -0.0114 -0.0904 0.1525 -0.2111 -0.0586
10.8000 -0.2131 -0.0104 -0.0793 0.1531 -0.2764 -0.1233
10.7000 -0.2749 -0.0092 -0.0907 0.1588 -0.3337 -0.1749
10.6000 -0.3375 -0.0078 -0.0958 0.1574 -0.3911 -0.2337
10.5000 -0.3768 -0.0064 -0.1030 0.1601 -0.4274 -0.2672
10.4000 -0.4046 -0.0043 -0.0933 0.1579 -0.4646 -0.3068
10.3000 -0.4162 -0.0025 -0.1128 0.1506 -0.4513 -0.3007
10.2000 -0.4291 -0.0002 -0.1229 0.1456 -0.4514 -0.3058
10.1000 -0.4111 0.0022 -0.1474 0.1414 -0.4072 -0.2658
10.0000 -0.4024 0.0041 -0.1537 0.1340 -0.3867 -0.2527
9.9000 -0.3589 0.0056 -0.1525 0.1259 -0.3378 -0.2119
9.8000 -0.3016 0.0067 -0.1547 0.1196 -0.2731 -0.1535
9.7000 -0.2163 0.0073 -0.1324 0.1090 -0.1999 -0.0910
9.6000 -0.1307 0.0072 -0.1026 0.1037 -0.1389 -0.0351
9.5000 0.0190 0.0065 -0.0825 0.0951 0.0001 0.0952
9.4000 0.1839 0.0052 -0.0423 0.0900 0.1311 0.2211
9.3000 0.3858 0.0034 -0.0247 0.0887 0.3184 0.4072
9.2000 0.6141 0.0012 0.0085 0.0923 0.5122 0.6045
9.1000 0.8651 -0.0013 0.0276 0.1002 0.7387 0.8389
9.0000 1.1378 -0.0042 0.0688 0.1131 0.9601 1.0732
8.9000 1.3892 -0.0074 0.0966 0.1371 1.1630 1.3001
8.8000 1.5942 -0.0110 0.1050 0.1671 1.3332 1.5003
8.7000 1.7355 -0.0151 0.1021 0.2048 1.4437 1.6484
8.6000 1.8192 -0.0196 0.1255 0.2458 1.4675 1.7132
8.5000 1.8495 -0.0248 0.1125 0.2926 1.4690 1.7616
8.4000 1.8018 -0.0305 0.0976 0.3416 1.3930 1.7346
8.3000 1.6794 -0.0368 0.1197 0.3906 1.2059 1.5965
8.2000 1.5264 -0.0440 0.1209 0.4409 1.0085 1.4494
8.1000 1.3596 -0.0518 0.1050 0.4878 0.8187 1.3064
8.0000 1.1663 -0.0606 0.0807 0.5341 0.6121 1.1462
7.9000 0.9361 -0.0704 0.0482 0.5746 0.3836 0.9582
7.8000 0.6893 -0.0812 0.0048 0.6106 0.1552 0.7657
7.7000 0.4448 -0.0932 -0.0376 0.6401 -0.0644 0.5756
7.6000 0.1978 -0.1066 -0.0542 0.6628 -0.3043 0.3585
7.5000 -0.0391 -0.1215 -0.0894 0.6798 -0.5081 0.1717
7.4000 -0.2806 -0.1381 -0.1024 0.6916 -0.7318 -0.0402
7.3000 -0.4979 -0.1565 -0.1436 0.6986 -0.8965 -0.1979
7.2000 -0.7190 -0.1770 -0.1756 0.7002 -1.0667 -0.3665
7.1000 -0.9064 -0.1998 -0.1989 0.6998 -1.2075 -0.5077
7.0000 -1.0845 -0.2252 -0.2389 0.6981 -1.3186 -0.6204
6.9000 -1.2124 -0.2534 -0.2618 0.6995 -1.3967 -0.6972
6.8000 -1.3077 -0.2849 -0.2920 0.7073 -1.4379 -0.7307
6.7000 -1.3315 -0.3200 -0.3187 0.7211 -1.4139 -0.6928
6.6000 -1.2752 -0.3592 -0.3648 0.7447 -1.2958 -0.5511
6.5000 -1.0906 -0.4028 -0.4119 0.7791 -1.0550 -0.2759
6.4000 -0.7635 -0.4515 -0.4497 0.8236 -0.6860 0.1377
6.3000 -0.2673 -0.5058 -0.5114 0.8840 -0.1340 0.7500
6.2000 0.4470 -0.5666 -0.6045 0.9584 0.6598 1.6181
6.1000 1.3842 -0.6344 -0.7261 1.0517 1.6931 2.7448
6.0000 2.5178 -0.7102 -0.8247 1.1664 2.8865 4.0529
5.9000 3.7473 -0.7950 -0.9355 1.3170 4.1610 5.4780
5.8000 4.8183 -0.8899 -1.0044 1.5119 5.2009 6.7128
5.7000 5.4941 -0.9961 -0.9982 1.7505 5.7379 7.4885
5.6000 5.9247 -1.1149 -0.9357 2.0205 5.9550 7.9754
5.5000 6.0820 -1.2480 -0.7386 2.3127 5.7560 8.0687
5.4000 6.0809 -1.3971 -0.4490 2.6211 5.3061 7.9271
5.3000 6.0065 -1.5640 -0.1148 2.9433 4.7421 7.6854
5.2000 5.8947 -1.7510 0.2431 3.2752 4.1273 7.4026
5.1000 5.7089 -1.9603 0.6321 3.6204 3.4169 7.0373
5.0000 5.4923 -2.1945 1.0474 3.9772 2.6622 6.6394
4.9000 5.2292 -2.4562 1.4942 4.3435 1.8478 6.1913
4.8000 4.9358 -2.7485 1.9549 4.7151 1.0142 5.7293
4.7000 4.5887 -3.0741 2.4627 5.0928 0.1071 5.2000
4.6000 4.1926 -3.4361 3.0040 5.4804 -0.8558 4.6246
4.5000 3.7269 -3.8369 3.5900 5.8786 -1.9050 3.9736
4.4000 3.1876 -4.2788 4.2108 6.2826 -3.0273 3.2553
4.3000 2.5740 -4.7625 4.8580 6.6917 -4.2135 2.4782
4.2000 1.8988 -5.2874 5.5676 7.1042 -5.4858 1.6184
4.1000 1.1548 -5.8494 6.2880 7.5187 -6.8027 0.7160
4.0000 0.3488 -6.4401 7.0512 7.9381 -8.2006 -0.2626
3.9000 -0.4864 -7.0435 7.8649 8.3583 -9.6664 -1.3081
3.8000 -1.3420 -7.6326 8.6999 8.7800 -11.1895 -2.4094
3.7000 -2.1815 -8.1631 9.5596 9.2008 -12.7790 -3.5782
3.6000 -2.9267 -8.5643 10.4624 9.6220 -14.4471 -4.8251
3.5000 -3.4726 -8.7257 11.3908 10.0434 -16.1815 -6.1381
3.4000 -3.6273 -8.4751 12.3144 10.4614 -17.9283 -7.4669
3.3000 -3.1312 -7.5463 13.2717 10.8760 -19.7330 -8.8570
3.2000 -1.5759 -5.5267 14.2262 11.2883 -21.5639 -10.2756
3.1000 1.6854 -1.7760 15.2123 11.6959 -23.4470 -11.7511
3.0000 7.6501 4.7047 16.2078 12.0926 -25.3554 -13.2627
2.9000 17.9018 15.4849 17.2066 12.4883 -27.2783 -14.7900
2.8000 34.8926 33.0523 18.1872 12.8766 -29.2237 -16.3471
2.7000 62.6459 61.3930 19.1842 13.2587 -31.1902 -17.9315
2.6000 107.6303 106.9742 20.1674 13.6286 -33.1401 -19.5115
2.5000 180.4405 180.4397 21.1444 13.9904 -35.1342 -21.1438
2.4000 298.9162 299.5958 22.1023 14.3428 -37.1250 -22.7821
2.3000 493.3884 494.7833 23.0652 14.6834 -39.1435 -24.4601
2.2000 816.6210 818.7781 24.0142 15.0094 -41.1806 -26.1712
2.1000 1362.6014 1365.5487 24.9452 15.3189 -43.2111 -27.8922
2.0000 2303.0733 2306.8474 25.8687 15.6161 -45.2585 -29.6425
1.9000 3961.4210 3966.0741 26.7817 15.8932 -47.3276 -31.4344
1.8000 6967.4553 6973.0357 27.6776 16.1518 -49.4090 -33.2572
1.7000 12595.4389 12602.0016 28.5631 16.3886 -51.5126 -35.1240
1.6000 23538.4405 23546.0365 29.4361 16.6042 -53.6323 -37.0281
1.5000 45776.7358 45785.4318 30.2976 16.7959 -55.7813 -38.9854
1.4000 93357.5050 93367.3891 31.1494 16.9603 -57.9792 -41.0189
1.3000 201444.1573 201455.2769 32.0025 17.0952 -60.1798 -43.0845
