# 0-dist(Ang),1-dGtot,2-dGvac,3-dGele,4-dGdis,5-dGcav,6-dGvdw(kT)
13.5000 0.0000 0.0000 0.0000 0.0000 0.0000 0.0000
13.4000 0.0071 0.0000 1.8807 0.0243 -1.8979 -1.8736
13.3000 0.0220 0.0000 3.7555 0.0509 -3.7844 -3.7335
13.2000 0.0063 0.0001 5.6303 0.0777 -5.7017 -5.6240
13.1000 0.0075 0.0001 7.5185 0.1022 -7.6133 -7.5111
13.0000 0.0538 0.0001 9.3854 0.1269 -9.4586 -9.3317
12.9000 0.0775 -0.0003 11.2541 0.1520 -11.3283 -11.1763
12.8000 0.1004 -0.0007 13.1327 0.1771 -13.2088 -13.0316
12.7000 0.1354 -0.0013 15.0040 0.2045 -15.0719 -14.8674
12.6000 0.1404 -0.0020 16.8982 0.2319 -16.9879 -16.7560
12.5000 0.1580 -0.0030 18.7535 0.2594 -18.8522 -18.5928
12.4000 0.1848 -0.0039 20.6534 0.2878 -20.7528 -20.4651
12.3000 0.1916 -0.0047 22.5212 0.3146 -22.6399 -22.3253
12.2000 0.1927 -0.0057 24.3964 0.3403 -24.5386 -24.1983
12.1000 0.2239 -0.0065 26.2695 0.3674 -26.4073 -26.0399
12.0000 0.2046 -0.0077 28.1473 0.3971 -28.3325 -27.9354
11.9000 0.1948 -0.0118 29.9927 0.4281 -30.2146 -29.7865
11.8000 0.1744 -0.0154 31.8518 0.4581 -32.1206 -31.6625
11.7000 0.1544 -0.0191 33.6806 0.4872 -33.9948 -33.5076
11.6000 0.1197 -0.0232 35.5524 0.5191 -35.9290 -35.4099
11.5000 0.0811 -0.0267 37.4250 0.5507 -37.8683 -37.3176
11.4000 0.0334 -0.0310 39.3049 0.5805 -39.8210 -39.2405
11.3000 -0.0137 -0.0363 41.1527 0.6117 -41.7419 -41.1302
11.2000 -0.0567 -0.0422 42.9799 0.6432 -43.6377 -42.9945
11.1000 -0.1118 -0.0487 44.8315 0.6755 -45.5702 -44.8947
11.0000 -0.1594 -0.0553 46.6687 0.7084 -47.4811 -46.7727
10.9000 -0.1745 -0.0620 48.5391 0.7370 -49.3884 -48.6514
10.8000 -0.2248 -0.0692 50.4053 0.7684 -51.3293 -50.5608
10.7000 -0.2577 -0.0762 52.2542 0.7985 -53.2342 -52.4357
10.6000 -0.3018 -0.0819 54.1249 0.8281 -55.1729 -54.3448
10.5000 -0.3432 -0.0884 56.0136 0.8549 -57.1233 -56.2684
10.4000 -0.3935 -0.0956 57.9159 0.8804 -59.0943 -58.2139
10.3000 -0.4445 -0.1021 59.8238 0.9074 -61.0738 -60.1664
10.2000 -0.4789 -0.1075 61.6966 0.9328 -63.0014 -62.0686
10.1000 -0.5483 -0.1158 63.5829 0.9574 -64.9733 -64.0159
10.0000 -0.5812 -0.1280 65.4844 0.9812 -66.9195 -65.9383
9.9000 -0.6131 -0.1409 67.3479 1.0051 -68.8260 -67.8209
9.8000 -0.6289 -0.1534 69.2049 1.0263 -70.7075 -69.6812
9.7000 -0.6283 -0.1671 71.0621 1.0469 -72.5708 -71.5239
9.6000 -0.6093 -0.1788 72.9469 1.0689 -74.4468 -73.3780
9.5000 -0.5592 -0.1908 74.8500 1.0924 -76.3112 -75.2188
9.4000 -0.4965 -0.2030 76.7386 1.1175 -78.1500 -77.0326
9.3000 -0.3833 -0.2177 78.6285 1.1411 -79.9357 -78.7946
9.2000 -0.2680 -0.2350 80.4956 1.1687 -81.6977 -80.5291
9.1000 -0.0979 -0.2519 82.4012 1.1967 -83.4444 -82.2477
9.0000 0.0703 -0.2678 84.2767 1.2300 -85.1694 -83.9394
8.9000 0.2081 -0.2842 86.1651 1.2716 -86.9451 -85.6734
8.8000 0.3343 -0.3061 88.0587 1.3125 -88.7314 -87.4189
8.7000 0.4216 -0.3296 89.9196 1.3620 -90.5310 -89.1690
8.6000 0.4738 -0.3560 91.7632 1.4120 -92.3460 -90.9340
8.5000 0.4981 -0.3825 93.6220 1.4668 -94.2087 -92.7419
8.4000 0.4869 -0.4118 95.4889 1.5229 -96.1135 -94.5906
8.3000 0.4469 -0.4429 97.3349 1.5804 -98.0259 -96.4455
8.2000 0.3778 -0.4745 99.2176 1.6379 -100.0036 -98.3656
8.1000 0.2787 -0.5078 101.0597 1.6940 -101.9675 -100.2735
8.0000 0.1743 -0.5386 102.9415 1.7505 -103.9795 -102.2290
7.9000 0.0353 -0.5711 104.7457 1.8068 -105.9465 -104.1397
7.8000 -0.1175 -0.6051 106.6208 1.8587 -107.9922 -106.1335
7.7000 -0.2814 -0.6405 108.4748 1.9102 -110.0265 -108.1164
7.6000 -0.4689 -0.6763 110.3349 1.9571 -112.0850 -110.1279
7.5000 -0.6542 -0.7133 112.2067 1.9995 -114.1477 -112.1481
7.4000 -0.8632 -0.7518 114.1041 2.0422 -116.2581 -114.2159
7.3000 -1.0837 -0.7916 115.9760 2.0845 -118.3530 -116.2686
7.2000 -1.3001 -0.8323 117.8989 2.1210 -120.4882 -118.3671
7.1000 -1.5005 -0.8756 119.7811 2.1554 -122.5620 -120.4065
7.0000 -1.6867 -0.9223 121.6381 2.1888 -124.5916 -122.4029
6.9000 -1.8376 -0.9728 123.5446 2.2235 -126.6334 -124.4099
6.8000 -1.9178 -1.0268 125.4037 2.2566 -128.5518 -126.2952
6.7000 -1.9213 -1.0850 127.3012 2.2938 -130.4319 -128.1382
6.6000 -1.8187 -1.1472 129.1911 2.3338 -132.1970 -129.8632
6.5000 -1.5864 -1.2142 131.0666 2.3800 -133.8197 -131.4397
6.4000 -1.2217 -1.2864 132.9452 2.4403 -135.3216 -132.8813
6.3000 -0.6936 -1.3645 134.8212 2.5020 -136.6531 -134.1511
6.2000 -0.1087 -1.4490 136.7097 2.5723 -137.9425 -135.3702
6.1000 0.4158 -1.5407 138.6123 2.6497 -139.3063 -136.6566
6.0000 0.7696 -1.6402 140.4867 2.7425 -140.8201 -138.0776
5.9000 1.0528 -1.7486 142.3560 2.8466 -142.4019 -139.5554
5.8000 1.2525 -1.8665 144.2646 2.9647 -144.1108 -141.1461
5.7000 1.3697 -1.9952 146.1321 3.0965 -145.8642 -142.7678
5.6000 1.4131 -2.1356 148.0261 3.2448 -147.7228 -144.4780
5.5000 1.4284 -2.2890 149.8848 3.4035 -149.5716 -146.1681
5.4000 1.4104 -2.4567 151.7746 3.5772 -151.4854 -147.9082
5.3000 1.3308 -2.6403 153.6397 3.7654 -153.4346 -149.6692
5.2000 1.2605 -2.8412 155.4958 3.9654 -155.3602 -151.3948
5.1000 1.1564 -3.0614 157.3648 4.1782 -157.3258 -153.1476
5.0000 1.0014 -3.3026 159.2351 4.4036 -159.3354 -154.9318
4.9000 0.8082 -3.5669 161.1107 4.6424 -161.3786 -156.7363
4.8000 0.5850 -3.8561 162.9794 4.8892 -163.4281 -158.5389
4.7000 0.3021 -4.1722 164.8354 5.1521 -165.5137 -160.3616
4.6000 -0.0154 -4.5166 166.7291 5.4208 -167.6493 -162.2285
4.5000 -0.4052 -4.8903 168.6208 5.7041 -169.8403 -164.1362
4.4000 -0.8272 -5.2931 170.4836 5.9924 -172.0107 -166.0182
4.3000 -1.3007 -5.7230 172.3361 6.2955 -174.2098 -167.9143
4.2000 -1.8483 -6.1750 174.2190 6.6082 -176.5012 -169.8930
4.1000 -2.4246 -6.6390 176.0802 6.9301 -178.7963 -171.8662
4.0000 -3.0251 -7.0973 177.9509 7.2626 -181.1420 -173.8795
3.9000 -3.6257 -7.5197 179.7993 7.5963 -183.5023 -175.9060
3.8000 -4.1594 -7.8563 181.6839 7.9365 -185.9241 -177.9876
3.7000 -4.5441 -8.0259 183.5157 8.2842 -188.3188 -180.0346
3.6000 -4.6605 -7.8971 185.3659 8.6339 -190.7638 -182.1300
3.5000 -4.2943 -7.2577 187.2064 8.9893 -193.2330 -184.2437
3.4000 -3.1016 -5.7640 189.0412 9.3472 -195.7267 -186.3795
3.3000 -0.5148 -2.8546 190.9130 9.7075 -198.2813 -188.5739
3.2000 4.3924 2.3957 192.7742 10.0709 -200.8491 -190.7782
3.1000 13.1449 11.5346 194.6563 10.4322 -203.4790 -193.0467
3.0000 28.4152 27.1963 196.5020 10.7954 -206.0793 -195.2839
2.9000 54.7550 53.9663 198.3478 11.1554 -208.7153 -197.5599
2.8000 100.3937 100.0474 200.1879 11.5098 -211.3520 -199.8423
2.7000 180.4977 180.6169 202.0617 11.8645 -214.0464 -202.1818
2.6000 324.2997 324.9223 203.8947 12.2150 -216.7330 -204.5180
2.5000 591.0154 592.1386 205.7288 12.5599 -219.4126 -206.8526
2.4000 1107.3371 1108.9800 207.5366 12.8960 -222.0762 -209.1801
2.3000 2162.6950 2164.8842 209.3530 13.2268 -224.7694 -211.5426
2.2000 4467.0477 4469.7908 211.1725 13.5481 -227.4640 -213.9158
2.1000 9900.7564 9904.0692 212.9982 13.8612 -230.1714 -216.3103
2.0000 23867.8282 23871.7242 214.8000 14.1643 -232.8574 -218.6932
1.9000 63302.2250 63306.7202 216.6280 14.4554 -235.5783 -221.1229
1.8000 186397.4175 186402.5669 218.4516 14.7336 -238.2963 -223.5627
1.7000 614049.0186 614054.7024 220.2493 14.9987 -240.9808 -225.9821
1.6000 2279375.3192 2279381.9077 222.0500 15.2486 -243.6785 -228.4299
1.5000 9592097.1987 9592105.8643 223.8537 15.4807 -246.3684 -230.8877
1.4000 45778981.7795 45778995.9916 225.6752 15.6916 -249.0581 -233.3665
1.3000 243463733.1721 243463742.3647 227.4821 15.8869 -251.7343 -235.8474
