# 0-dist(Ang),1-dGtot,2-dGvac,3-dGele,4-dGdis,5-dGcav,6-dGvdw(kT)
13.5000 0.0000 0.0000 0.0000 0.0000 0.0000 0.0000
13.4000 -0.0179 -0.0962 -1.7162 -0.0318 1.8263 1.7945
13.3000 -0.0297 -0.2019 -3.4447 -0.0644 3.6812 3.6168
13.2000 -0.0332 -0.3087 -5.1649 -0.0962 5.5367 5.4405
13.1000 -0.0108 -0.4107 -6.8659 -0.1289 7.3948 7.2659
13.0000 0.0142 -0.5060 -8.5951 -0.1613 9.2768 9.1155
12.9000 0.0689 -0.5841 -10.2858 -0.1951 11.1345 10.9394
12.8000 0.1367 -0.6487 -11.9916 -0.2282 13.0058 12.7775
12.7000 0.2045 -0.7024 -13.6668 -0.2605 14.8347 14.5743
12.6000 0.2928 -0.7533 -15.3650 -0.2937 16.7053 16.4117
12.5000 0.3644 -0.8124 -17.0368 -0.3259 18.5400 18.2141
12.4000 0.4364 -0.8850 -18.7172 -0.3587 20.3979 20.0392
12.3000 0.4801 -0.9730 -20.4132 -0.3915 22.2585 21.8670
12.2000 0.4944 -1.0809 -22.1034 -0.4237 24.1030 23.6793
12.1000 0.4978 -1.2075 -23.8072 -0.4560 25.9691 25.5131
12.0000 0.4731 -1.3559 -25.4548 -0.4897 27.7742 27.2845
11.9000 0.4550 -1.5131 -27.1182 -0.5226 29.6096 29.0869
11.8000 0.4422 -1.6823 -28.7649 -0.5553 31.4452 30.8900
11.7000 0.4273 -1.8637 -30.4179 -0.5886 33.2982 32.7095
11.6000 0.4102 -2.0577 -32.0491 -0.6211 35.1387 34.5176
11.5000 0.4032 -2.2635 -33.6814 -0.6525 37.0011 36.3486
11.4000 0.4047 -2.4813 -35.3004 -0.6859 38.8728 38.1869
11.3000 0.4155 -2.7129 -36.9175 -0.7181 40.7645 40.0465
11.2000 0.4288 -2.9585 -38.5185 -0.7505 42.6569 41.9064
11.1000 0.4517 -3.2120 -40.1064 -0.7837 44.5546 43.7709
11.0000 0.4940 -3.4611 -41.6802 -0.8139 46.4500 45.6361
10.9000 0.5528 -3.7121 -43.2436 -0.8464 48.3558 47.5094
10.8000 0.6323 -3.9648 -44.8103 -0.8793 50.2876 49.4082
10.7000 0.7150 -4.2203 -46.3423 -0.9116 52.1902 51.2786
10.6000 0.8129 -4.4855 -47.8556 -0.9442 54.0992 53.1550
10.5000 0.8995 -4.7656 -49.3514 -0.9773 55.9948 55.0175
10.4000 0.9778 -5.0675 -50.8110 -1.0107 57.8682 56.8575
10.3000 1.0472 -5.3891 -52.2680 -1.0449 59.7505 58.7056
10.2000 1.1027 -5.7319 -53.6860 -1.0787 61.6006 60.5219
10.1000 1.1270 -6.0973 -55.0700 -1.1124 63.4080 62.2956
10.0000 1.1401 -6.4808 -56.4635 -1.1465 65.2323 64.0858
9.9000 1.1125 -6.8826 -57.8075 -1.1798 66.9840 65.8042
9.8000 1.0627 -7.3038 -59.1640 -1.2145 68.7468 67.5323
9.7000 0.9798 -7.7424 -60.4757 -1.2494 70.4491 69.1998
9.6000 0.8561 -8.2010 -61.7984 -1.2833 72.1409 70.8576
9.5000 0.7212 -8.6812 -63.1232 -1.3173 73.8451 72.5278
9.4000 0.6009 -9.1833 -64.4508 -1.3516 75.5890 74.2374
9.3000 0.4970 -9.7082 -65.7939 -1.3864 77.3880 76.0016
9.2000 0.4137 -10.2572 -67.1337 -1.4204 79.2276 77.8072
9.1000 0.3912 -10.8314 -68.4769 -1.4545 81.1567 79.7022
9.0000 0.4148 -11.4281 -69.8185 -1.4886 83.1529 81.6643
8.9000 0.4963 -12.0480 -71.1267 -1.5219 85.1961 83.6743
8.8000 0.6116 -12.6919 -72.3923 -1.5560 87.2553 85.6992
8.7000 0.7592 -13.3596 -73.6284 -1.5898 89.3408 87.7510
8.6000 0.9303 -14.0558 -74.8255 -1.6249 91.4405 89.8156
8.5000 1.1279 -14.7824 -76.0006 -1.6591 93.5744 91.9153
8.4000 1.3375 -15.5383 -77.1114 -1.6955 95.6874 93.9920
8.3000 1.5692 -16.3263 -78.1866 -1.7313 97.8186 96.0873
8.2000 1.8144 -17.1488 -79.1895 -1.7661 99.9244 98.1583
8.1000 2.0812 -18.0049 -80.1252 -1.8024 102.0197 100.2173
8.0000 2.3375 -18.8961 -80.9708 -1.8384 104.0492 102.2108
7.9000 2.6031 -19.8218 -81.7429 -1.8745 106.0494 104.1750
7.8000 2.8501 -20.7865 -82.4377 -1.9135 107.9955 106.0821
7.7000 3.0647 -21.7904 -83.0159 -1.9533 109.8327 107.8794
7.6000 3.2160 -22.8356 -83.5038 -1.9919 111.5564 109.5645
7.5000 3.2469 -23.9225 -83.8753 -2.0308 113.0856 111.0548
7.4000 3.1176 -25.0545 -84.1235 -2.0715 114.3780 112.3065
7.3000 2.8143 -26.2339 -84.2797 -2.1110 115.4510 113.3401
7.2000 2.2632 -27.4641 -84.4108 -2.1496 116.3009 114.1513
7.1000 1.5100 -28.7470 -84.5239 -2.1883 116.9836 114.7953
7.0000 0.6056 -30.0857 -84.7457 -2.2263 117.6790 115.4527
6.9000 -0.3326 -31.4835 -85.0958 -2.2604 118.5244 116.2640
6.8000 -1.1840 -32.9441 -85.6270 -2.2913 119.6973 117.4059
6.7000 -1.7937 -34.4694 -86.3314 -2.3202 121.3480 119.0278
6.6000 -2.0442 -36.0644 -87.1725 -2.3460 123.5613 121.2152
6.5000 -1.8587 -37.7339 -88.0524 -2.3718 126.3243 123.9525
6.4000 -1.2426 -39.4825 -88.7998 -2.3963 129.4634 127.0670
6.3000 -0.3903 -41.3148 -89.2101 -2.4208 132.5856 130.1648
6.2000 0.5618 -43.2353 -89.1219 -2.4484 135.4007 132.9523
6.1000 1.5183 -45.2501 -88.5176 -2.4775 137.8000 135.3225
6.0000 2.4766 -47.3659 -87.4264 -2.5093 139.8184 137.3091
5.9000 3.5383 -49.5902 -85.9083 -2.5405 141.6215 139.0809
5.8000 4.6347 -51.9307 -83.9643 -2.5726 143.1508 140.5781
5.7000 5.7174 -54.3971 -81.6491 -2.6025 144.4189 141.8164
5.6000 6.6986 -56.9980 -78.9802 -2.6304 145.3645 142.7340
5.5000 7.5120 -59.7453 -75.9901 -2.6557 145.9648 143.3090
5.4000 8.0795 -62.6511 -72.7087 -2.6751 146.1801 143.5050
5.3000 8.3694 -65.7278 -69.2052 -2.6886 146.0598 143.3712
5.2000 8.3508 -68.9907 -65.5320 -2.6980 145.6419 142.9438
5.1000 8.0107 -72.4560 -61.7267 -2.7020 144.9646 142.2626
5.0000 7.3471 -76.1405 -57.8304 -2.7032 144.0846 141.3814
4.9000 6.3753 -80.0622 -53.8707 -2.7005 143.0590 140.3584
4.8000 5.0842 -84.2388 -49.8590 -2.6935 141.9009 139.2075
4.7000 3.4920 -88.6862 -45.8166 -2.6854 140.6628 137.9774
4.6000 1.6036 -93.4154 -41.7566 -2.6749 139.3609 136.6860
4.5000 -0.5445 -98.4265 -37.6742 -2.6625 138.0113 135.3488
4.4000 -2.9051 -103.6985 -33.5783 -2.6475 136.6221 133.9745
4.3000 -5.3751 -109.1707 -29.4827 -2.6326 135.2083 132.5758
4.2000 -7.7499 -114.7077 -25.3973 -2.6159 133.7776 131.1617
4.1000 -9.6176 -120.0347 -21.3067 -2.5975 132.3347 129.7372
4.0000 -10.2601 -124.6124 -17.2243 -2.5766 130.8745 128.2979
3.9000 -8.2785 -127.3876 -13.1649 -2.5562 129.4237 126.8675
3.8000 -0.9986 -126.2673 -9.1383 -2.5348 127.9843 125.4495
3.7000 16.9276 -116.9408 -5.1351 -2.5116 126.5360 124.0244
3.6000 56.7780 -90.0197 -1.2167 -2.4873 125.1237 122.6364
3.5000 144.2383 -23.3753 2.6235 -2.4628 123.7411 121.2784
3.4000 344.0153 140.9099 6.3497 -2.4398 122.3990 119.9591
3.3000 842.3654 575.6523 9.9575 -2.4155 121.0943 118.6789
3.2000 2268.9105 1883.1065 13.4262 -2.3913 119.8388 117.4475
3.1000 7186.5838 6568.4883 16.7242 -2.3665 118.6295 116.2629
3.0000 28460.5136 27370.2631 19.8297 -2.3424 117.4952 115.1528
2.9000 148326.0617 146233.6588 22.7327 -2.3183 116.4329 114.1146
2.8000 1073228.7129 1068906.1318 25.4031 -2.2942 115.4340 113.1398
2.7000 11761966.3569 11752411.0180 27.8696 -2.2683 114.5000 112.2316
2.6000 230368598.4778 230346180.8669 30.1086 -2.2419 113.6254 111.3835
2.5000 11159420159.5452 11159367286.3701 32.1165 -2.2135 112.8064 110.5929
2.4000 2658463301824.7217 2658463458663.2510 33.9029 -2.1836 112.0513 109.8678
2.3000 3571874005830476.5000 3571875719846094.0000 35.5083 -2.1518 111.3414 109.1897
2.2000 219391332816291.0000 219391410545548.0000 36.9538 -2.1181 110.6578 108.5397
2.1000 229538103380.4062 229531953400.1250 38.3035 -2.0820 109.9822 107.9002
2.0000 2168043119.8851 2139090704.1374 39.5317 -2.0447 109.3227 107.2780
1.9000 724513077.4582 558047318.3977 40.7229 -2.0063 108.6443 106.6380
1.8000 5100540998.7364 3815565556.9939 41.8986 -1.9648 107.9262 105.9614
1.7000 59378345853.0314 44406922741.4417 43.0616 -1.9206 107.1645 105.2438
1.6000 1276705320450.9385 954799250550.1930 44.2294 -1.8748 106.3383 104.4635
1.5000 74179238466922.7344 55475805217355.0156 45.4354 -1.8273 105.4283 103.6010
1.4000 25552578672133396.0000 19109808992837816.0000 46.6553 -1.7776 104.4448 102.6672
1.3000 69476324428258664448.0000 51958685162674282496.0000 47.8890 -1.7271 103.3947 101.6676
