# 0-dist(Ang),1-dGtot,2-dGvac,3-dGele,4-dGdis,5-dGcav,6-dGvdw(kT)
13.5000 0.0000 0.0000 0.0000 0.0000 0.0000 0.0000
13.4000 0.0030 0.0000 -0.6699 -0.0053 0.6783 0.6729
13.3000 0.0048 0.0000 -1.3613 -0.0112 1.3773 1.3661
13.2000 0.0100 0.0000 -2.0549 -0.0158 2.0806 2.0648
13.1000 -0.0018 0.0000 -2.7452 -0.0206 2.7639 2.7433
13.0000 0.0021 0.0000 -3.4192 -0.0271 3.4483 3.4212
12.9000 -0.0004 0.0000 -4.1203 -0.0313 4.1511 4.1198
12.8000 -0.0067 0.0000 -4.8062 -0.0367 4.8362 4.7994
12.7000 0.0010 0.0000 -5.4901 -0.0423 5.5333 5.4910
12.6000 0.0114 0.0000 -6.1640 -0.0472 6.2226 6.1754
12.5000 0.0158 0.0000 -6.8478 -0.0532 6.9168 6.8637
12.4000 0.0322 0.0000 -7.5295 -0.0596 7.6215 7.5619
12.3000 0.0375 0.0000 -8.2097 -0.0646 8.3119 8.2473
12.2000 0.0448 0.0000 -8.9050 -0.0708 9.0207 8.9499
12.1000 0.0523 0.0000 -9.5987 -0.0776 9.7288 9.6512
12.0000 0.0471 0.0000 -10.2721 -0.0845 10.4038 10.3193
11.9000 0.0320 -0.0019 -10.9410 -0.0915 11.0666 10.9752
11.8000 0.0247 -0.0053 -11.6274 -0.0960 11.7536 11.6576
11.7000 0.0177 -0.0103 -12.2911 -0.1030 12.4223 12.3193
11.6000 0.0141 -0.0168 -12.9706 -0.1089 13.1108 13.0018
11.5000 0.0134 -0.0249 -13.6197 -0.1159 13.7743 13.6584
11.4000 0.0047 -0.0347 -14.3264 -0.1222 14.4882 14.3660
11.3000 -0.0160 -0.0462 -15.0124 -0.1280 15.1708 15.0427
11.2000 -0.0204 -0.0593 -15.7004 -0.1326 15.8720 15.7394
11.1000 -0.0229 -0.0737 -16.3926 -0.1379 16.5814 16.4435
11.0000 -0.0153 -0.0888 -17.0974 -0.1430 17.3141 17.1711
10.9000 -0.0124 -0.1023 -17.8103 -0.1480 18.0483 17.9004
10.8000 -0.0115 -0.1138 -18.5125 -0.1524 18.7674 18.6150
10.7000 0.0015 -0.1232 -19.2076 -0.1551 19.4875 19.3323
10.6000 0.0200 -0.1293 -19.8941 -0.1591 20.2026 20.0435
10.5000 0.0361 -0.1324 -20.5928 -0.1631 20.9244 20.7613
10.4000 0.0612 -0.1325 -21.2597 -0.1657 21.6191 21.4534
10.3000 0.0866 -0.1298 -21.9648 -0.1704 22.3516 22.1812
10.2000 0.1032 -0.1263 -22.6497 -0.1747 23.0539 22.8792
10.1000 0.1243 -0.1257 -23.3236 -0.1785 23.7522 23.5737
10.0000 0.1636 -0.1276 -23.9918 -0.1835 24.4666 24.2831
9.9000 0.1747 -0.1329 -24.6858 -0.1857 25.1793 24.9935
9.8000 0.1830 -0.1436 -25.3583 -0.1876 25.8726 25.6850
9.7000 0.1842 -0.1594 -26.0261 -0.1923 26.5621 26.3698
9.6000 0.1780 -0.1808 -26.6951 -0.1968 27.2507 27.0540
9.5000 0.1407 -0.2068 -27.3529 -0.2002 27.9008 27.7005
9.4000 0.0989 -0.2377 -28.0335 -0.2050 28.5754 28.3703
9.3000 0.0836 -0.2720 -28.6942 -0.2110 29.2610 29.0500
9.2000 0.0610 -0.3069 -29.3697 -0.2158 29.9537 29.7379
9.1000 0.0223 -0.3438 -30.0563 -0.2214 30.6442 30.4227
9.0000 -0.0043 -0.3823 -30.7380 -0.2276 31.3439 31.1163
8.9000 -0.0305 -0.4187 -31.4183 -0.2331 32.0400 31.8069
8.8000 -0.0427 -0.4517 -32.0990 -0.2411 32.7493 32.5082
8.7000 -0.0495 -0.4799 -32.7827 -0.2466 33.4599 33.2133
8.6000 -0.0398 -0.5050 -33.4553 -0.2517 34.1723 33.9205
8.5000 -0.0316 -0.5252 -34.1161 -0.2599 34.8697 34.6098
8.4000 -0.0062 -0.5416 -34.7654 -0.2660 35.5670 35.3009
8.3000 0.0175 -0.5554 -35.4490 -0.2701 36.2922 36.0221
8.2000 0.0578 -0.5663 -36.1055 -0.2786 37.0083 36.7297
8.1000 0.0911 -0.5769 -36.7903 -0.2815 37.7400 37.4585
8.0000 0.1245 -0.5891 -37.4356 -0.2877 38.4371 38.1495
7.9000 0.1464 -0.6042 -38.0512 -0.2906 39.0927 38.8021
7.8000 0.1730 -0.6223 -38.7258 -0.2951 39.8163 39.5212
7.7000 0.1878 -0.6442 -39.3702 -0.3009 40.5032 40.2023
7.6000 0.1922 -0.6697 -40.0392 -0.3028 41.2042 40.9014
7.5000 0.1823 -0.6994 -40.7040 -0.3024 41.8884 41.5859
7.4000 0.1749 -0.7322 -41.3991 -0.3028 42.6093 42.3065
7.3000 0.1651 -0.7698 -42.0817 -0.3028 43.3196 43.0168
7.2000 0.1389 -0.8089 -42.7967 -0.3016 44.0464 43.7448
7.1000 0.1225 -0.8493 -43.5183 -0.3007 44.7911 44.4903
7.0000 0.1213 -0.8907 -44.2445 -0.2980 45.5548 45.2568
6.9000 0.1122 -0.9336 -44.9967 -0.2957 46.3387 46.0430
6.8000 0.0966 -0.9769 -45.7026 -0.2919 47.0685 46.7766
6.7000 0.0961 -1.0195 -46.4379 -0.2893 47.8432 47.5539
6.6000 0.0970 -1.0620 -47.1387 -0.2859 48.5837 48.2979
6.5000 0.1193 -1.1044 -47.8309 -0.2847 49.3396 49.0549
6.4000 0.1394 -1.1477 -48.4887 -0.2827 50.0588 49.7761
6.3000 0.1517 -1.1915 -49.1281 -0.2831 50.7545 50.4714
6.2000 0.1697 -1.2363 -49.7304 -0.2849 51.4213 51.1364
6.1000 0.2003 -1.2820 -50.3050 -0.2895 52.0770 51.7875
6.0000 0.2204 -1.3295 -50.8695 -0.2914 52.7112 52.4198
5.9000 0.2427 -1.3809 -51.4037 -0.2955 53.3231 53.0276
5.8000 0.2504 -1.4354 -51.8932 -0.3009 53.8802 53.5793
5.7000 0.2284 -1.4929 -52.3926 -0.3049 54.4192 54.1143
5.6000 0.1916 -1.5540 -52.8558 -0.3072 54.9091 54.6018
5.5000 0.1411 -1.6186 -53.3619 -0.3078 55.4299 55.1221
5.4000 0.0688 -1.6860 -53.8570 -0.3089 55.9212 55.6123
5.3000 -0.0052 -1.7573 -54.3717 -0.3095 56.4336 56.1241
5.2000 -0.1319 -1.8330 -54.9288 -0.3104 56.9406 56.6302
5.1000 -0.2839 -1.9136 -55.5289 -0.3101 57.4690 57.1589
5.0000 -0.4422 -1.9994 -56.1927 -0.3098 58.0601 57.7503
4.9000 -0.5859 -2.0913 -56.9285 -0.3073 58.7415 58.4342
4.8000 -0.6670 -2.1894 -57.7682 -0.3018 59.5928 59.2910
4.7000 -0.6883 -2.2945 -58.6303 -0.2974 60.5343 60.2369
4.6000 -0.6230 -2.4075 -59.5651 -0.2871 61.6371 61.3500
4.5000 -0.4680 -2.5292 -60.5113 -0.2740 62.8470 62.5730
4.4000 -0.2536 -2.6602 -61.4515 -0.2583 64.1168 63.8585
4.3000 -0.0210 -2.8017 -62.3665 -0.2363 65.3840 65.1477
4.2000 0.2455 -2.9545 -63.2037 -0.2109 66.6150 66.4042
4.1000 0.5195 -3.1198 -64.0160 -0.1793 67.8352 67.6559
4.0000 0.7865 -3.2990 -64.7656 -0.1415 68.9933 68.8518
3.9000 1.0422 -3.4935 -65.4250 -0.0992 70.0605 69.9613
3.8000 1.3103 -3.7051 -65.9816 -0.0537 71.0512 70.9975
3.7000 1.5152 -3.9354 -66.4719 -0.0011 71.9241 71.9230
3.6000 1.6796 -4.1866 -66.8541 0.0575 72.6633 72.7208
3.5000 1.7800 -4.4611 -67.1149 0.1219 73.2346 73.3565
3.4000 1.8256 -4.7613 -67.2622 0.1921 73.6575 73.8496
3.3000 1.8176 -5.0901 -67.3553 0.2662 73.9974 74.2636
3.2000 1.7727 -5.4507 -67.3574 0.3456 74.2356 74.5812
3.1000 1.6387 -5.8463 -67.2790 0.4316 74.3328 74.7643
3.0000 1.4546 -6.2804 -67.1194 0.5234 74.3313 74.8548
2.9000 1.2035 -6.7566 -66.8827 0.6200 74.2232 74.8432
2.8000 0.8886 -7.2778 -66.5984 0.7219 74.0433 74.7652
2.7000 0.5118 -7.8463 -66.2418 0.8282 73.7721 74.6003
2.6000 0.0702 -8.4626 -65.8349 0.9405 73.4277 74.3682
2.5000 -0.4343 -9.1233 -65.3684 1.0582 72.9995 74.0578
2.4000 -0.9910 -9.8184 -64.8758 1.1794 72.5243 73.7037
2.3000 -1.5596 -10.5258 -64.3360 1.3037 71.9989 73.3026
2.2000 -2.1411 -11.2006 -63.7588 1.4355 71.3833 72.8187
2.1000 -2.6000 -11.7567 -63.1604 1.5688 70.7486 72.3174
2.0000 -2.8313 -12.0292 -62.5479 1.7094 70.0368 71.7462
1.9000 -2.4645 -11.7009 -61.9175 1.8536 69.3007 71.1543
1.8000 -0.8822 -10.1465 -61.2584 1.9991 68.5239 70.5230
1.7000 3.1715 -6.0905 -60.6239 2.1490 67.7373 69.8863
1.6000 12.4286 3.1900 -59.9881 2.3026 66.9244 69.2270
1.5000 33.0390 23.8479 -59.3679 2.4606 66.0987 68.5593
1.4000 79.8689 70.7487 -58.7268 2.6195 65.2279 67.8474
1.3000 191.7262 182.7130 -58.1123 2.7838 64.3421 67.1259
