# 0-dist(Ang),1-dGtot,2-dGvac,3-dGele,4-dGdis,5-dGcav,6-dGvdw(kT)
13.5000 0.0000 0.0000 0.0000 0.0000 0.0000 0.0000
13.4000 -0.0046 0.0000 0.0177 -0.0006 -0.0217 -0.0223
13.3000 -0.0010 0.0000 0.0320 -0.0043 -0.0287 -0.0330
13.2000 0.0048 0.0000 0.0450 -0.0088 -0.0315 -0.0402
13.1000 0.0217 0.0000 0.0424 -0.0139 -0.0068 -0.0208
13.0000 0.0346 0.0001 0.0429 -0.0184 0.0100 -0.0084
12.9000 0.0649 0.0003 0.0515 -0.0215 0.0345 0.0130
12.8000 0.0893 0.0005 0.0483 -0.0242 0.0647 0.0405
12.7000 0.1123 0.0005 0.0585 -0.0279 0.0811 0.0533
12.6000 0.1383 0.0005 0.0616 -0.0317 0.1078 0.0761
12.5000 0.1567 0.0003 0.0680 -0.0352 0.1235 0.0883
12.4000 0.1823 0.0002 0.0694 -0.0367 0.1494 0.1127
12.3000 0.1975 0.0001 0.0765 -0.0403 0.1612 0.1209
12.2000 0.2082 -0.0000 0.0891 -0.0414 0.1605 0.1191
12.1000 0.2180 -0.0001 0.0938 -0.0439 0.1682 0.1243
12.0000 0.2176 -0.0009 0.1067 -0.0437 0.1555 0.1118
11.9000 0.2069 -0.0100 0.1201 -0.0446 0.1416 0.0970
11.8000 0.1931 -0.0125 0.1393 -0.0417 0.1082 0.0665
11.7000 0.1648 -0.0184 0.1450 -0.0414 0.0799 0.0384
11.6000 0.1439 -0.0192 0.1616 -0.0381 0.0397 0.0016
11.5000 0.1223 -0.0197 0.1799 -0.0358 -0.0019 -0.0377
11.4000 0.1002 -0.0209 0.1868 -0.0324 -0.0332 -0.0656
11.3000 0.0957 -0.0227 0.2012 -0.0290 -0.0537 -0.0826
11.2000 0.0736 -0.0243 0.2044 -0.0263 -0.0800 -0.1064
11.1000 0.0521 -0.0209 0.2192 -0.0235 -0.1226 -0.1461
11.0000 0.0444 -0.0161 0.2417 -0.0245 -0.1567 -0.1811
10.9000 0.0316 -0.0105 0.2381 -0.0229 -0.1729 -0.1958
10.8000 0.0114 -0.0050 0.2382 -0.0219 -0.1998 -0.2217
10.7000 -0.0137 -0.0011 0.2446 -0.0224 -0.2346 -0.2570
10.6000 -0.0322 0.0022 0.2439 -0.0204 -0.2578 -0.2782
10.5000 -0.0527 0.0055 0.2553 -0.0231 -0.2905 -0.3135
10.4000 -0.0565 0.0084 0.2545 -0.0261 -0.2933 -0.3194
10.3000 -0.0555 0.0097 0.2466 -0.0297 -0.2821 -0.3118
10.2000 -0.0628 0.0124 0.2500 -0.0338 -0.2913 -0.3252
10.1000 -0.0534 0.0151 0.2514 -0.0403 -0.2794 -0.3198
10.0000 -0.0336 0.0175 0.2492 -0.0486 -0.2516 -0.3002
9.9000 -0.0031 0.0194 0.2621 -0.0569 -0.2274 -0.2844
9.8000 0.0379 0.0205 0.2685 -0.0678 -0.1831 -0.2509
9.7000 0.0842 0.0209 0.2767 -0.0774 -0.1359 -0.2133
9.6000 0.1417 0.0207 0.2873 -0.0868 -0.0793 -0.1661
9.5000 0.2058 0.0198 0.2956 -0.0967 -0.0127 -0.1095
9.4000 0.2686 0.0187 0.3161 -0.1051 0.0391 -0.0660
9.3000 0.3547 0.0174 0.3345 -0.1089 0.1119 0.0030
9.2000 0.4547 0.0158 0.3536 -0.1092 0.1947 0.0855
9.1000 0.5629 0.0137 0.3673 -0.1085 0.2906 0.1821
9.0000 0.6674 0.0113 0.3915 -0.1055 0.3703 0.2649
8.9000 0.7718 0.0084 0.4222 -0.0936 0.4348 0.3412
8.8000 0.8539 0.0052 0.4449 -0.0798 0.4837 0.4039
8.7000 0.9393 0.0015 0.4699 -0.0593 0.5273 0.4680
8.6000 0.9870 -0.0025 0.4992 -0.0354 0.5258 0.4904
8.5000 1.0010 -0.0068 0.5368 -0.0072 0.4782 0.4710
8.4000 0.9963 -0.0115 0.5737 0.0220 0.4122 0.4342
8.3000 0.9530 -0.0170 0.6161 0.0542 0.2997 0.3539
8.2000 0.9009 -0.0232 0.6574 0.0878 0.1788 0.2665
8.1000 0.8124 -0.0303 0.7068 0.1240 0.0117 0.1357
8.0000 0.7148 -0.0383 0.7593 0.1567 -0.1631 -0.0064
7.9000 0.5930 -0.0473 0.7983 0.1880 -0.3462 -0.1582
7.8000 0.4576 -0.0574 0.8497 0.2171 -0.5520 -0.3349
7.7000 0.3083 -0.0687 0.8833 0.2420 -0.7485 -0.5064
7.6000 0.1584 -0.0814 0.9342 0.2626 -0.9574 -0.6948
7.5000 0.0124 -0.0955 0.9837 0.2776 -1.1537 -0.8761
7.4000 -0.1498 -0.1113 1.0250 0.2875 -1.3514 -1.0639
7.3000 -0.3104 -0.1289 1.0760 0.2916 -1.5495 -1.2578
7.2000 -0.4500 -0.1486 1.1277 0.2913 -1.7208 -1.4295
7.1000 -0.5779 -0.1706 1.1793 0.2872 -1.8742 -1.5870
7.0000 -0.6965 -0.1951 1.2227 0.2788 -2.0034 -1.7246
6.9000 -0.7852 -0.2224 1.2659 0.2711 -2.1002 -1.8291
6.8000 -0.8459 -0.2529 1.3028 0.2645 -2.1606 -1.8962
6.7000 -0.8486 -0.2869 1.3396 0.2601 -2.1617 -1.9017
6.6000 -0.7795 -0.3249 1.3659 0.2592 -2.0801 -1.8209
6.5000 -0.6275 -0.3673 1.3823 0.2669 -1.9098 -1.6428
6.4000 -0.3721 -0.4148 1.3751 0.2801 -1.6127 -1.3326
6.3000 0.0418 -0.4679 1.3489 0.3016 -1.1412 -0.8395
6.2000 0.6188 -0.5273 1.3060 0.3366 -0.4968 -0.1602
6.1000 1.3769 -0.5937 1.2400 0.3855 0.3448 0.7303
6.0000 2.2827 -0.6681 1.1696 0.4604 1.3206 1.7810
5.9000 3.2028 -0.7515 1.1309 0.5773 2.2458 2.8232
5.8000 3.9020 -0.8449 1.1568 0.7536 2.8362 3.5898
5.7000 4.3083 -0.9496 1.2887 0.9850 2.9838 3.9688
5.6000 4.5305 -1.0669 1.4723 1.2472 2.8777 4.1249
5.5000 4.6631 -1.1984 1.7121 1.5326 2.6165 4.1491
5.4000 4.7348 -1.3458 2.0022 1.8352 2.2428 4.0780
5.3000 4.7525 -1.5111 2.3480 2.1547 1.7605 3.9152
5.2000 4.7282 -1.6961 2.7250 2.4859 1.2130 3.6989
5.1000 4.6597 -1.9033 3.1472 2.8306 0.5848 3.4154
5.0000 4.5393 -2.1350 3.5842 3.1876 -0.0980 3.0896
4.9000 4.3853 -2.3936 4.0554 3.5541 -0.8311 2.7231
4.8000 4.1855 -2.6819 4.5572 3.9338 -1.6240 2.3098
4.7000 3.9274 -3.0023 5.0914 4.3259 -2.4880 1.8378
4.6000 3.6124 -3.3571 5.6504 4.7275 -3.4089 1.3186
4.5000 3.2445 -3.7480 6.2247 5.1372 -4.3699 0.7673
4.4000 2.8019 -4.1756 6.8196 5.5556 -5.3981 0.1575
4.3000 2.3018 -4.6392 7.4382 5.9813 -6.4789 -0.4975
4.2000 1.7387 -5.1351 8.0859 6.4157 -7.6280 -1.2124
4.1000 1.1060 -5.6555 8.7505 6.8554 -8.8446 -1.9893
4.0000 0.4307 -6.1861 9.4161 7.2996 -10.0990 -2.7994
3.9000 -0.2852 -6.7028 10.0960 7.7495 -11.4281 -3.6786
3.8000 -0.9897 -7.1662 10.7791 8.2024 -12.8053 -4.6028
3.7000 -1.6212 -7.5142 11.4638 8.6589 -14.2300 -5.5711
3.6000 -2.0849 -7.6496 12.1514 9.1166 -15.7036 -6.5870
3.5000 -2.2343 -7.4226 12.8369 9.5737 -17.2228 -7.6491
3.4000 -1.8227 -6.6017 13.5202 10.0323 -18.7739 -8.7416
3.3000 -0.5042 -4.8308 14.2100 10.4889 -20.3729 -9.8839
3.2000 2.2712 -1.5602 14.8839 10.9445 -21.9975 -11.0531
3.1000 7.3688 4.0630 15.5525 11.3976 -23.6449 -12.2473
3.0000 16.1059 13.3700 16.2189 11.8457 -25.3293 -13.4836
2.9000 30.5899 28.4571 16.8840 12.2896 -27.0413 -14.7517
2.8000 54.1586 52.6591 17.5485 12.7291 -28.7786 -16.0495
2.7000 92.1831 91.3452 18.2058 13.1641 -30.5325 -17.3683
2.6000 153.4211 153.2805 18.8645 13.5935 -32.3178 -18.7243
2.5000 252.4083 253.0003 19.5170 14.0149 -34.1244 -20.1096
2.4000 413.6912 415.0421 20.1634 14.4272 -35.9420 -21.5148
2.3000 679.5054 681.6621 20.8030 14.8323 -37.7924 -22.9601
2.2000 1124.2968 1127.2970 21.4413 15.2264 -39.6684 -24.4420
2.1000 1882.5651 1886.4399 22.0840 15.6076 -41.5668 -25.9592
2.0000 3204.3512 3209.1492 22.7224 15.9771 -43.4979 -27.5208
1.9000 5569.9494 5575.7010 23.3664 16.3335 -45.4522 -29.1187
1.8000 9936.1400 9942.8893 23.9994 16.6725 -47.4217 -30.7493
1.7000 18290.1829 18297.9871 24.6467 16.9949 -49.4458 -32.4510
1.6000 34959.2852 34968.1821 25.2978 17.2974 -51.4921 -34.1946
1.5000 69885.6149 69895.6648 25.9405 17.5770 -53.5621 -35.9851
1.4000 147352.7684 147364.0030 26.5852 17.8352 -55.6609 -37.8257
1.3000 330952.9610 330965.4666 27.2306 18.0682 -57.7930 -39.7248
